ID	gender	age	mother.tongue	not.turkish	aware	word.base	word	isRising	dir	dir.num	leftFilm	rightFilm	risingLeft	correctDir	response	congruent	rt	trial	chosen.video	not.chosen.video	resp.left	resp.rising	response.pd	correct.pd	rt.pd	trial.pd	resp.rising.pd
1	m	26	Turkish	0	0	ivam	ivam_fal.mp3	0	down	-0.5	F10.mp4	R5.mp4	0	left	left	1	3.07	0	F10.mp4	R5.mp4	1	0	up	0	1.128	13	1
1	m	26	Turkish	0	0	ivam	ivam_ris.mp3	1	up	0.5	R8.mp4	F10.mp4	1	left	right	0	0.355	17	F10.mp4	R8.mp4	0	0	down	0	2.794	2	0
1	m	26	Turkish	0	0	limer	limer_fal.mp3	0	down	-0.5	F5.mp4	R12.mp4	0	left	right	0	0.203	11	R12.mp4	F5.mp4	0	1	up	0	1.194	18	1
1	m	26	Turkish	0	0	limer	limer_ris.mp3	1	up	0.5	F4.mp4	R6.mp4	0	right	right	1	0.205	12	R6.mp4	F4.mp4	0	1	up	1	1.116	21	1
1	m	26	Turkish	0	0	maro	maro_fal.mp3	0	down	-0.5	R9.mp4	F4.mp4	1	right	right	1	1.5	2	F4.mp4	R9.mp4	0	0	down	1	1.76	7	0
1	m	26	Turkish	0	0	maro	maro_ris.mp3	1	up	0.5	R11.mp4	F5.mp4	1	left	right	0	0.048	20	F5.mp4	R11.mp4	0	0	up	1	1.261	3	1
1	m	26	Turkish	0	0	reman	reman_fal.mp3	0	down	-0.5	R8.mp4	F7.mp4	1	right	left	0	0.752	16	R8.mp4	F7.mp4	1	1	down	1	0.812	17	0
1	m	26	Turkish	0	0	reman	reman_ris.mp3	1	up	0.5	F2.mp4	R12.mp4	0	right	left	0	0.953	14	F2.mp4	R12.mp4	1	0	up	1	2.628	6	1
1	m	26	Turkish	0	0	shinen	shinen_fal.mp3	0	down	-0.5	F1.mp4	R7.mp4	0	left	left	1	1.571	13	F1.mp4	R7.mp4	1	0	down	1	1.428	9	0
1	m	26	Turkish	0	0	shinen	shinen_ris.mp3	1	up	0.5	R3.mp4	F11.mp4	1	left	right	0	0.424	10	F11.mp4	R3.mp4	0	0	up	1	0.963	15	1
1	m	26	Turkish	0	0	teya	teya_fal.mp3	0	down	-0.5	R10.mp4	F3.mp4	1	right	right	1	0.871	6	F3.mp4	R10.mp4	0	0	down	1	1.712	1	0
1	m	26	Turkish	0	0	teya	teya_ris.mp3	1	up	0.5	F12.mp4	R5.mp4	0	right	left	0	2.569	3	F12.mp4	R5.mp4	1	0	up	1	1.563	10	1
1	m	26	Turkish	0	0	tila	tila_fal.mp3	0	down	-0.5	F9.mp4	R11.mp4	0	left	right	0	0.172	19	R11.mp4	F9.mp4	0	1	down	1	1.444	23	0
1	m	26	Turkish	0	0	tila	tila_ris.mp3	1	up	0.5	R4.mp4	F6.mp4	1	left	right	0	0.372	22	F6.mp4	R4.mp4	0	0	up	1	2.996	8	1
1	m	26	Turkish	0	0	vewa	vewa_fal.mp3	0	down	-0.5	R3.mp4	F6.mp4	1	right	left	0	0.671	9	R3.mp4	F6.mp4	1	1	up	0	2.011	11	1
1	m	26	Turkish	0	0	vewa	vewa_ris.mp3	1	up	0.5	R10.mp4	F3.mp4	1	left	left	1	0.201	21	R10.mp4	F3.mp4	1	1	up	1	1.294	22	1
1	m	26	Turkish	0	0	wemi	wemi_fal.mp3	0	down	-0.5	F11.mp4	R2.mp4	0	left	left	1	2.585	1	F11.mp4	R2.mp4	1	0	up	0	1.6	4	1
1	m	26	Turkish	0	0	wemi	wemi_ris.mp3	1	up	0.5	F8.mp4	R1.mp4	0	right	left	0	1.151	8	F8.mp4	R1.mp4	1	0	up	1	1.045	16	1
1	m	26	Turkish	0	0	yilel	yilel_fal.mp3	0	down	-0.5	F8.mp4	R1.mp4	0	left	left	1	0.87	7	F8.mp4	R1.mp4	1	0	down	1	1.261	5	0
1	m	26	Turkish	0	0	yilel	yilel_ris.mp3	1	up	0.5	F1.mp4	R2.mp4	0	right	left	0	0.601	4	F1.mp4	R2.mp4	1	0	up	1	1.012	20	1
1	m	26	Turkish	0	0	yina	yina_fal.mp3	0	down	-0.5	F2.mp4	R6.mp4	0	left	right	0	0.968	23	R6.mp4	F2.mp4	0	1	down	1	0.979	14	0
1	m	26	Turkish	0	0	yina	yina_ris.mp3	1	up	0.5	F7.mp4	R7.mp4	0	right	right	1	0.584	5	R7.mp4	F7.mp4	0	1	up	1	1.077	19	1
1	m	26	Turkish	0	0	ylo	ylo_fal.mp3	0	down	-0.5	R4.mp4	F12.mp4	1	right	left	0	1.383	18	R4.mp4	F12.mp4	1	1	up	0	1.377	12	1
1	m	26	Turkish	0	0	ylo	ylo_ris.mp3	1	up	0.5	F9.mp4	R9.mp4	0	right	left	0	6.35	15	F9.mp4	R9.mp4	1	0	up	1	1.376	0	1
2	f	41	Turkish	0	0	ivam	ivam_fal.mp3	0	down	-0.5	F11.mp4	R7.mp4	0	left	right	0	9.15321	7	R7.mp4	F11.mp4	0	1	down	1	2.75873	22	0
2	f	41	Turkish	0	0	ivam	ivam_ris.mp3	1	up	0.5	F11.mp4	R5.mp4	0	right	right	1	0.964935	22	R5.mp4	F11.mp4	0	1	up	1	1.025465	17	1
2	f	41	Turkish	0	0	limer	limer_fal.mp3	0	down	-0.5	F8.mp4	R8.mp4	0	left	left	1	6.401425	6	F8.mp4	R8.mp4	1	0	down	1	1.088565	19	0
2	f	41	Turkish	0	0	limer	limer_ris.mp3	1	up	0.5	F2.mp4	R9.mp4	0	right	right	1	4.35483	14	R9.mp4	F2.mp4	0	1	up	1	1.00845	4	1
2	f	41	Turkish	0	0	maro	maro_fal.mp3	0	down	-0.5	F10.mp4	R9.mp4	0	left	left	1	1.15452	1	F10.mp4	R9.mp4	1	0	down	1	1.43101	5	0
2	f	41	Turkish	0	0	maro	maro_ris.mp3	1	up	0.5	R2.mp4	F1.mp4	1	left	right	0	1.141825	10	F1.mp4	R2.mp4	0	0	up	1	1.008845	7	1
2	f	41	Turkish	0	0	reman	reman_fal.mp3	0	down	-0.5	R6.mp4	F12.mp4	1	right	left	0	0.061495	5	R6.mp4	F12.mp4	1	1	down	1	1.496355	2	0
2	f	41	Turkish	0	0	reman	reman_ris.mp3	1	up	0.5	F8.mp4	R10.mp4	0	right	right	1	0.23802	12	R10.mp4	F8.mp4	0	1	up	1	0.85733	6	1
2	f	41	Turkish	0	0	shinen	shinen_fal.mp3	0	down	-0.5	R12.mp4	F1.mp4	1	right	right	1	9.77816	16	F1.mp4	R12.mp4	0	0	down	1	0.879835	1	0
2	f	41	Turkish	0	0	shinen	shinen_ris.mp3	1	up	0.5	R1.mp4	F7.mp4	1	left	left	1	4.326465	4	R1.mp4	F7.mp4	1	1	up	1	1.22927	18	1
2	f	41	Turkish	0	0	teya	teya_fal.mp3	0	down	-0.5	R4.mp4	F4.mp4	1	right	right	1	0.34134	15	F4.mp4	R4.mp4	0	0	down	1	1.657485	9	0
2	f	41	Turkish	0	0	teya	teya_ris.mp3	1	up	0.5	F3.mp4	R6.mp4	0	right	right	1	0.024315	3	R6.mp4	F3.mp4	0	1	up	1	5.24701	0	1
2	f	41	Turkish	0	0	tila	tila_fal.mp3	0	down	-0.5	F5.mp4	R1.mp4	0	left	right	0	3.739955	18	R1.mp4	F5.mp4	0	1	up	0	1.100915	15	1
2	f	41	Turkish	0	0	tila	tila_ris.mp3	1	up	0.5	R11.mp4	F5.mp4	1	left	left	1	3.869425	13	R11.mp4	F5.mp4	1	1	up	1	1.172825	13	1
2	f	41	Turkish	0	0	vewa	vewa_fal.mp3	0	down	-0.5	R3.mp4	F2.mp4	1	right	right	1	0.6015	17	F2.mp4	R3.mp4	0	0	down	1	2.132995	14	0
2	f	41	Turkish	0	0	vewa	vewa_ris.mp3	1	up	0.5	R7.mp4	F6.mp4	1	left	left	1	1.08964	23	R7.mp4	F6.mp4	1	1	up	1	1.905595	20	1
2	f	41	Turkish	0	0	wemi	wemi_fal.mp3	0	down	-0.5	F9.mp4	R11.mp4	0	left	right	0	1.433305	2	R11.mp4	F9.mp4	0	1	down	1	1.24051	12	0
2	f	41	Turkish	0	0	wemi	wemi_ris.mp3	1	up	0.5	F10.mp4	R3.mp4	0	right	left	0	0.279275	11	F10.mp4	R3.mp4	1	0	up	1	1.580555	10	1
2	f	41	Turkish	0	0	yilel	yilel_fal.mp3	0	down	-0.5	F7.mp4	R10.mp4	0	left	right	0	10.68807	8	R10.mp4	F7.mp4	0	1	down	1	1.4936	16	0
2	f	41	Turkish	0	0	yilel	yilel_ris.mp3	1	up	0.5	F4.mp4	R12.mp4	0	right	right	1	12.55813	9	R12.mp4	F4.mp4	0	1	up	1	0.95945	21	1
2	f	41	Turkish	0	0	yina	yina_fal.mp3	0	down	-0.5	R5.mp4	F6.mp4	1	right	right	1	0.20185	19	F6.mp4	R5.mp4	0	0	down	1	1.80755	23	0
2	f	41	Turkish	0	0	yina	yina_ris.mp3	1	up	0.5	R4.mp4	F12.mp4	1	left	left	1	4.746295	0	R4.mp4	F12.mp4	1	1	up	1	1.808365	8	1
2	f	41	Turkish	0	0	ylo	ylo_fal.mp3	0	down	-0.5	F3.mp4	R2.mp4	0	left	left	1	0.839715	21	F3.mp4	R2.mp4	1	0	down	1	1.459425	3	0
2	f	41	Turkish	0	0	ylo	ylo_ris.mp3	1	up	0.5	R8.mp4	F9.mp4	1	left	right	0	9.48887	20	F9.mp4	R8.mp4	0	0	up	1	1.46406	11	1
3	m	56	turkish	0	0	ivam	ivam_fal.mp3	0	down	-0.5	R9.mp4	F9.mp4	1	right	right	1	0.8931	7	F9.mp4	R9.mp4	0	0	up	0	1.2888	3	1
3	m	56	turkish	0	0	ivam	ivam_ris.mp3	1	up	0.5	F2.mp4	R6.mp4	0	right	left	0	0.0155	1	F2.mp4	R6.mp4	1	0	down	0	1.3589	1	0
3	m	56	turkish	0	0	limer	limer_fal.mp3	0	down	-0.5	R2.mp4	F5.mp4	1	right	left	0	0.1996	2	R2.mp4	F5.mp4	1	1	up	0	3.5157	20	1
3	m	56	turkish	0	0	limer	limer_ris.mp3	1	up	0.5	R5.mp4	F8.mp4	1	left	left	1	0.1868	12	R5.mp4	F8.mp4	1	1	up	1	5.2376	10	1
3	m	56	turkish	0	0	maro	maro_fal.mp3	0	down	-0.5	F3.mp4	R11.mp4	0	left	left	1	25.7651	17	F3.mp4	R11.mp4	1	0	up	0	4.2525	17	1
3	m	56	turkish	0	0	maro	maro_ris.mp3	1	up	0.5	R7.mp4	F9.mp4	1	left	left	1	0.1929	23	R7.mp4	F9.mp4	1	1	down	0	2.4015	9	0
3	m	56	turkish	0	0	reman	reman_fal.mp3	0	down	-0.5	F11.mp4	R10.mp4	0	left	left	1	1.0554	13	F11.mp4	R10.mp4	1	0	down	1	1.0544	7	0
3	m	56	turkish	0	0	reman	reman_ris.mp3	1	up	0.5	R9.mp4	F11.mp4	1	left	right	0	0.1258	14	F11.mp4	R9.mp4	0	0	up	1	1.2598	4	1
3	m	56	turkish	0	0	shinen	shinen_fal.mp3	0	down	-0.5	F10.mp4	R3.mp4	0	left	left	1	6.6649	6	F10.mp4	R3.mp4	1	0	up	0	1.8172	14	1
3	m	56	turkish	0	0	shinen	shinen_ris.mp3	1	up	0.5	F4.mp4	R1.mp4	0	right	left	0	7.5582	16	F4.mp4	R1.mp4	1	0	up	1	3.3711	21	1
3	m	56	turkish	0	0	teya	teya_fal.mp3	0	down	-0.5	R1.mp4	F1.mp4	1	right	right	1	12.7168	0	F1.mp4	R1.mp4	0	0	up	0	1.1456	8	1
3	m	56	turkish	0	0	teya	teya_ris.mp3	1	up	0.5	R12.mp4	F10.mp4	1	left	right	0	0.0777	22	F10.mp4	R12.mp4	0	0	up	1	1.5618	6	1
3	m	56	turkish	0	0	tila	tila_fal.mp3	0	down	-0.5	F7.mp4	R7.mp4	0	left	right	0	19.1455	19	R7.mp4	F7.mp4	0	1	down	1	2.8029	15	0
3	m	56	turkish	0	0	tila	tila_ris.mp3	1	up	0.5	R11.mp4	F3.mp4	1	left	left	1	0.2525	10	R11.mp4	F3.mp4	1	1	down	0	1.3348	22	0
3	m	56	turkish	0	0	vewa	vewa_fal.mp3	0	down	-0.5	F4.mp4	R12.mp4	0	left	left	1	0.1554	8	F4.mp4	R12.mp4	1	0	down	1	1.7205	5	0
3	m	56	turkish	0	0	vewa	vewa_ris.mp3	1	up	0.5	F6.mp4	R10.mp4	0	right	left	0	3.6403	15	F6.mp4	R10.mp4	1	0	up	1	1.1374	23	1
3	m	56	turkish	0	0	wemi	wemi_fal.mp3	0	down	-0.5	F8.mp4	R6.mp4	0	left	right	0	9.5698	20	R6.mp4	F8.mp4	0	1	down	1	1.5767	16	0
3	m	56	turkish	0	0	wemi	wemi_ris.mp3	1	up	0.5	F5.mp4	R4.mp4	0	right	left	0	0.2047	5	F5.mp4	R4.mp4	1	0	down	0	2.0897	18	0
3	m	56	turkish	0	0	yilel	yilel_fal.mp3	0	down	-0.5	R4.mp4	F2.mp4	1	right	left	0	2.983	4	R4.mp4	F2.mp4	1	1	down	1	1.8342	19	0
3	m	56	turkish	0	0	yilel	yilel_ris.mp3	1	up	0.5	F12.mp4	R2.mp4	0	right	right	1	2.9656	18	R2.mp4	F12.mp4	0	1	down	0	1.8364	2	0
3	m	56	turkish	0	0	yina	yina_fal.mp3	0	down	-0.5	F12.mp4	R5.mp4	0	left	left	1	23.7185	3	F12.mp4	R5.mp4	1	0	up	0	2.3696	0	1
3	m	56	turkish	0	0	yina	yina_ris.mp3	1	up	0.5	R8.mp4	F1.mp4	1	left	left	1	0.0236	11	R8.mp4	F1.mp4	1	1	down	0	1.1538	13	0
3	m	56	turkish	0	0	ylo	ylo_fal.mp3	0	down	-0.5	F6.mp4	R8.mp4	0	left	right	0	0.3088	9	R8.mp4	F6.mp4	0	1	up	0	2.6399	11	1
3	m	56	turkish	0	0	ylo	ylo_ris.mp3	1	up	0.5	R3.mp4	F7.mp4	1	left	left	1	15.5537	21	R3.mp4	F7.mp4	1	1	up	1	1.2462	12	1
4	f	27	Turkish	0	0	ivam	ivam_fal.mp3	0	down	-0.5	R6.mp4	F11.mp4	1	right	right	1	1.2476	21	F11.mp4	R6.mp4	0	0	down	1	0.9331	23	0
4	f	27	Turkish	0	0	ivam	ivam_ris.mp3	1	up	0.5	F5.mp4	R10.mp4	0	right	right	1	0.97	5	R10.mp4	F5.mp4	0	1	up	1	1.05	18	1
4	f	27	Turkish	0	0	limer	limer_fal.mp3	0	down	-0.5	F5.mp4	R1.mp4	0	left	left	1	4.4253	14	F5.mp4	R1.mp4	1	0	down	1	2.5222	3	0
4	f	27	Turkish	0	0	limer	limer_ris.mp3	1	up	0.5	F8.mp4	R3.mp4	0	right	left	0	0.2299	9	F8.mp4	R3.mp4	1	0	up	1	1.0335	10	1
4	f	27	Turkish	0	0	maro	maro_fal.mp3	0	down	-0.5	F2.mp4	R12.mp4	0	left	left	1	1.6199	22	F2.mp4	R12.mp4	1	0	down	1	1.9106	7	0
4	f	27	Turkish	0	0	maro	maro_ris.mp3	1	up	0.5	R8.mp4	F12.mp4	1	left	left	1	1.2283	8	R8.mp4	F12.mp4	1	1	up	1	1.1569	19	1
4	f	27	Turkish	0	0	reman	reman_fal.mp3	0	down	-0.5	R10.mp4	F12.mp4	1	right	right	1	4.3619	3	F12.mp4	R10.mp4	0	0	down	1	3.9573	12	0
4	f	27	Turkish	0	0	reman	reman_ris.mp3	1	up	0.5	F7.mp4	R7.mp4	0	right	right	1	4.4838	19	R7.mp4	F7.mp4	0	1	up	1	1.0086	2	1
4	f	27	Turkish	0	0	shinen	shinen_fal.mp3	0	down	-0.5	F9.mp4	R2.mp4	0	left	left	1	7.6418	2	F9.mp4	R2.mp4	1	0	down	1	2.1909	17	0
4	f	27	Turkish	0	0	shinen	shinen_ris.mp3	1	up	0.5	R6.mp4	F9.mp4	1	left	left	1	1.4699	17	R6.mp4	F9.mp4	1	1	up	1	1.7051	13	1
4	f	27	Turkish	0	0	teya	teya_fal.mp3	0	down	-0.5	R5.mp4	F8.mp4	1	right	left	0	2.1309	23	R5.mp4	F8.mp4	1	1	up	0	3.8704	4	1
4	f	27	Turkish	0	0	teya	teya_ris.mp3	1	up	0.5	R5.mp4	F10.mp4	1	left	left	1	2.2076	13	R5.mp4	F10.mp4	1	1	up	1	0.9779	22	1
4	f	27	Turkish	0	0	tila	tila_fal.mp3	0	down	-0.5	R9.mp4	F6.mp4	1	right	right	1	3.9209	16	F6.mp4	R9.mp4	0	0	down	1	2.6153	9	0
4	f	27	Turkish	0	0	tila	tila_ris.mp3	1	up	0.5	F2.mp4	R1.mp4	0	right	right	1	0.9751	4	R1.mp4	F2.mp4	0	1	up	1	1.3997	14	1
4	f	27	Turkish	0	0	vewa	vewa_fal.mp3	0	down	-0.5	F10.mp4	R7.mp4	0	left	left	1	2.3388	20	F10.mp4	R7.mp4	1	0	down	1	3.3295	0	0
4	f	27	Turkish	0	0	vewa	vewa_ris.mp3	1	up	0.5	R9.mp4	F6.mp4	1	left	right	0	5.5222	12	F6.mp4	R9.mp4	0	0	up	1	1.1241	20	1
4	f	27	Turkish	0	0	wemi	wemi_fal.mp3	0	down	-0.5	R11.mp4	F1.mp4	1	right	right	1	1.6052	15	F1.mp4	R11.mp4	0	0	down	1	0.9452	15	0
4	f	27	Turkish	0	0	wemi	wemi_ris.mp3	1	up	0.5	F3.mp4	R4.mp4	0	right	left	0	2.2403	10	F3.mp4	R4.mp4	1	0	up	1	1.5265	16	1
4	f	27	Turkish	0	0	yilel	yilel_fal.mp3	0	down	-0.5	F4.mp4	R3.mp4	0	left	left	1	2.8543	1	F4.mp4	R3.mp4	1	0	down	1	1.579	1	0
4	f	27	Turkish	0	0	yilel	yilel_ris.mp3	1	up	0.5	F4.mp4	R11.mp4	0	right	left	0	0.5216	7	F4.mp4	R11.mp4	1	0	up	1	2.0914	21	1
4	f	27	Turkish	0	0	yina	yina_fal.mp3	0	down	-0.5	R4.mp4	F7.mp4	1	right	left	0	2.742	0	R4.mp4	F7.mp4	1	1	down	1	1.1411	6	0
4	f	27	Turkish	0	0	yina	yina_ris.mp3	1	up	0.5	R12.mp4	F1.mp4	1	left	left	1	1.5399	11	R12.mp4	F1.mp4	1	1	up	1	1.5949	5	1
4	f	27	Turkish	0	0	ylo	ylo_fal.mp3	0	down	-0.5	F3.mp4	R8.mp4	0	left	right	0	1.8366	18	R8.mp4	F3.mp4	0	1	down	1	1.2443	11	0
4	f	27	Turkish	0	0	ylo	ylo_ris.mp3	1	up	0.5	F11.mp4	R2.mp4	0	right	right	1	2.9681	6	R2.mp4	F11.mp4	0	1	up	1	1.3271	8	1
5	m	34	Turkish	0	0	ivam	ivam_fal.mp3	0	down	-0.5	R4.mp4	F2.mp4	1	right	right	1	4.0945	13	F2.mp4	R4.mp4	0	0	up	0	3.3083	0	1
5	m	34	Turkish	0	0	ivam	ivam_ris.mp3	1	up	0.5	R5.mp4	F12.mp4	1	left	left	1	3.4224	11	R5.mp4	F12.mp4	1	1	up	1	1.9424	9	1
5	m	34	Turkish	0	0	limer	limer_fal.mp3	0	down	-0.5	R10.mp4	F4.mp4	1	right	left	0	0.74	0	R10.mp4	F4.mp4	1	1	down	1	1.3432	23	0
5	m	34	Turkish	0	0	limer	limer_ris.mp3	1	up	0.5	F8.mp4	R4.mp4	0	right	right	1	0.2582	12	R4.mp4	F8.mp4	0	1	up	1	2.3756	21	1
5	m	34	Turkish	0	0	maro	maro_fal.mp3	0	down	-0.5	F7.mp4	R7.mp4	0	left	right	0	4.8769	22	R7.mp4	F7.mp4	0	1	down	1	1.2468	6	0
5	m	34	Turkish	0	0	maro	maro_ris.mp3	1	up	0.5	F11.mp4	R12.mp4	0	right	left	0	0.05	15	F11.mp4	R12.mp4	1	0	down	0	1.0639	16	0
5	m	34	Turkish	0	0	reman	reman_fal.mp3	0	down	-0.5	F11.mp4	R6.mp4	0	left	left	1	5.3323	3	F11.mp4	R6.mp4	1	0	down	1	1.3266	8	0
5	m	34	Turkish	0	0	reman	reman_ris.mp3	1	up	0.5	F6.mp4	R9.mp4	0	right	right	1	3.496	20	R9.mp4	F6.mp4	0	1	up	1	1.1965	17	1
5	m	34	Turkish	0	0	shinen	shinen_fal.mp3	0	down	-0.5	R5.mp4	F10.mp4	1	right	right	1	0.7272	2	F10.mp4	R5.mp4	0	0	down	1	1.5784	15	0
5	m	34	Turkish	0	0	shinen	shinen_ris.mp3	1	up	0.5	F4.mp4	R11.mp4	0	right	left	0	0.1141	18	F4.mp4	R11.mp4	1	0	down	0	1.3674	18	0
5	m	34	Turkish	0	0	teya	teya_fal.mp3	0	down	-0.5	R11.mp4	F3.mp4	1	right	left	0	0.2511	7	R11.mp4	F3.mp4	1	1	down	1	3.5633	1	0
5	m	34	Turkish	0	0	teya	teya_ris.mp3	1	up	0.5	R8.mp4	F5.mp4	1	left	left	1	3.8742	14	R8.mp4	F5.mp4	1	1	up	1	1.1613	13	1
5	m	34	Turkish	0	0	tila	tila_fal.mp3	0	down	-0.5	R8.mp4	F1.mp4	1	right	right	1	0.5601	6	F1.mp4	R8.mp4	0	0	down	1	1.195	22	0
5	m	34	Turkish	0	0	tila	tila_ris.mp3	1	up	0.5	R2.mp4	F3.mp4	1	left	right	0	5.4385	9	F3.mp4	R2.mp4	0	0	up	1	1.1849	4	1
5	m	34	Turkish	0	0	vewa	vewa_fal.mp3	0	down	-0.5	R3.mp4	F9.mp4	1	right	left	0	3.8772	17	R3.mp4	F9.mp4	1	1	down	1	2.3938	7	0
5	m	34	Turkish	0	0	vewa	vewa_ris.mp3	1	up	0.5	F10.mp4	R6.mp4	0	right	left	0	3.9403	19	F10.mp4	R6.mp4	1	0	up	1	1.0596	5	1
5	m	34	Turkish	0	0	wemi	wemi_fal.mp3	0	down	-0.5	F6.mp4	R9.mp4	0	left	left	1	0.3859	8	F6.mp4	R9.mp4	1	0	down	1	1.2625	20	0
5	m	34	Turkish	0	0	wemi	wemi_ris.mp3	1	up	0.5	F2.mp4	R1.mp4	0	right	left	0	0.3473	4	F2.mp4	R1.mp4	1	0	up	1	1.0823	10	1
5	m	34	Turkish	0	0	yilel	yilel_fal.mp3	0	down	-0.5	F5.mp4	R1.mp4	0	left	right	0	0.2355	10	R1.mp4	F5.mp4	0	1	down	1	1.4614	11	0
5	m	34	Turkish	0	0	yilel	yilel_ris.mp3	1	up	0.5	F1.mp4	R7.mp4	0	right	right	1	0.1388	1	R7.mp4	F1.mp4	0	1	up	1	1.931	2	1
5	m	34	Turkish	0	0	yina	yina_fal.mp3	0	down	-0.5	R12.mp4	F8.mp4	1	right	right	1	3.5612	21	F8.mp4	R12.mp4	0	0	down	1	0.9944	12	0
5	m	34	Turkish	0	0	yina	yina_ris.mp3	1	up	0.5	R3.mp4	F7.mp4	1	left	left	1	0.868	23	R3.mp4	F7.mp4	1	1	up	1	1.8013	3	1
5	m	34	Turkish	0	0	ylo	ylo_fal.mp3	0	down	-0.5	F12.mp4	R2.mp4	0	left	right	0	4.6712	16	R2.mp4	F12.mp4	0	1	down	1	1.2821	14	0
5	m	34	Turkish	0	0	ylo	ylo_ris.mp3	1	up	0.5	F9.mp4	R10.mp4	0	right	left	0	5.0176	5	F9.mp4	R10.mp4	1	0	down	0	1.184	19	0
6	m	29	Turkish and Kurdish	0	0	ivam	ivam_fal.mp3	0	down	-0.5	F1.mp4	R3.mp4	0	left	right	0	0.0507	23	R3.mp4	F1.mp4	0	1	down	1	1.4513	18	0
6	m	29	Turkish and Kurdish	0	0	ivam	ivam_ris.mp3	1	up	0.5	F5.mp4	R11.mp4	0	right	left	0	6.2575	13	F5.mp4	R11.mp4	1	0	up	1	0.9872	15	1
6	m	29	Turkish and Kurdish	0	0	limer	limer_fal.mp3	0	down	-0.5	F9.mp4	R6.mp4	0	left	right	0	4.5037	8	R6.mp4	F9.mp4	0	1	down	1	1.9688	1	0
6	m	29	Turkish and Kurdish	0	0	limer	limer_ris.mp3	1	up	0.5	R8.mp4	F8.mp4	1	left	left	1	2.1901	18	R8.mp4	F8.mp4	1	1	up	1	1.2162	9	1
6	m	29	Turkish and Kurdish	0	0	maro	maro_fal.mp3	0	down	-0.5	R1.mp4	F7.mp4	1	right	left	0	1.6524	19	R1.mp4	F7.mp4	1	1	up	0	2.0865	4	1
6	m	29	Turkish and Kurdish	0	0	maro	maro_ris.mp3	1	up	0.5	F1.mp4	R9.mp4	0	right	left	0	0.5683	3	F1.mp4	R9.mp4	1	0	up	1	0.8688	14	1
6	m	29	Turkish and Kurdish	0	0	reman	reman_fal.mp3	0	down	-0.5	F5.mp4	R8.mp4	0	left	left	1	1.2185	5	F5.mp4	R8.mp4	1	0	down	1	1.5017	13	0
6	m	29	Turkish and Kurdish	0	0	reman	reman_ris.mp3	1	up	0.5	F12.mp4	R2.mp4	0	right	left	0	0.9326	6	F12.mp4	R2.mp4	1	0	up	1	0.7675	23	1
6	m	29	Turkish and Kurdish	0	0	shinen	shinen_fal.mp3	0	down	-0.5	R9.mp4	F10.mp4	1	right	right	1	2.7535	17	F10.mp4	R9.mp4	0	0	down	1	1.0852	16	0
6	m	29	Turkish and Kurdish	0	0	shinen	shinen_ris.mp3	1	up	0.5	R10.mp4	F11.mp4	1	left	left	1	0.2709	15	R10.mp4	F11.mp4	1	1	up	1	1.0176	12	1
6	m	29	Turkish and Kurdish	0	0	teya	teya_fal.mp3	0	down	-0.5	F2.mp4	R7.mp4	0	left	right	0	1.204	2	R7.mp4	F2.mp4	0	1	up	0	1.4338	20	1
6	m	29	Turkish and Kurdish	0	0	teya	teya_ris.mp3	1	up	0.5	R5.mp4	F7.mp4	1	left	left	1	1.2204	12	R5.mp4	F7.mp4	1	1	up	1	0.9188	8	1
6	m	29	Turkish and Kurdish	0	0	tila	tila_fal.mp3	0	down	-0.5	F8.mp4	R4.mp4	0	left	right	0	0.8516	21	R4.mp4	F8.mp4	0	1	up	0	5.2548	0	1
6	m	29	Turkish and Kurdish	0	0	tila	tila_ris.mp3	1	up	0.5	F9.mp4	R3.mp4	0	right	right	1	0.084	14	R3.mp4	F9.mp4	0	1	up	1	0.8836	11	1
6	m	29	Turkish and Kurdish	0	0	vewa	vewa_fal.mp3	0	down	-0.5	F12.mp4	R11.mp4	0	left	left	1	1.3685	1	F12.mp4	R11.mp4	1	0	up	0	1.7855	5	1
6	m	29	Turkish and Kurdish	0	0	vewa	vewa_ris.mp3	1	up	0.5	F6.mp4	R12.mp4	0	right	right	1	8.1554	4	R12.mp4	F6.mp4	0	1	up	1	0.9122	19	1
6	m	29	Turkish and Kurdish	0	0	wemi	wemi_fal.mp3	0	down	-0.5	F11.mp4	R2.mp4	0	left	right	0	2.1379	16	R2.mp4	F11.mp4	0	1	down	1	1.5591	7	0
6	m	29	Turkish and Kurdish	0	0	wemi	wemi_ris.mp3	1	up	0.5	F4.mp4	R4.mp4	0	right	right	1	7.3758	7	R4.mp4	F4.mp4	0	1	down	0	1.0014	6	0
6	m	29	Turkish and Kurdish	0	0	yilel	yilel_fal.mp3	0	down	-0.5	R10.mp4	F6.mp4	1	right	left	0	8.7583	9	R10.mp4	F6.mp4	1	1	down	1	1.1179	10	0
6	m	29	Turkish and Kurdish	0	0	yilel	yilel_ris.mp3	1	up	0.5	R6.mp4	F3.mp4	1	left	left	1	2.2525	0	R6.mp4	F3.mp4	1	1	up	1	1.3316	3	1
6	m	29	Turkish and Kurdish	0	0	yina	yina_fal.mp3	0	down	-0.5	F3.mp4	R12.mp4	0	left	right	0	0.6837	10	R12.mp4	F3.mp4	0	1	down	1	1.3578	21	0
6	m	29	Turkish and Kurdish	0	0	yina	yina_ris.mp3	1	up	0.5	F10.mp4	R1.mp4	0	right	right	1	1.7159	11	R1.mp4	F10.mp4	0	1	up	1	0.8012	17	1
6	m	29	Turkish and Kurdish	0	0	ylo	ylo_fal.mp3	0	down	-0.5	R5.mp4	F4.mp4	1	right	right	1	1.5005	20	F4.mp4	R5.mp4	0	0	up	0	1.2007	2	1
6	m	29	Turkish and Kurdish	0	0	ylo	ylo_ris.mp3	1	up	0.5	F2.mp4	R7.mp4	0	right	right	1	0.5684	22	R7.mp4	F2.mp4	0	1	up	1	0.701	22	1
7	f	35	Turkish	0	0	ivam	ivam_fal.mp3	0	down	-0.5	R5.mp4	F3.mp4	1	right	right	1	0.5615	15	F3.mp4	R5.mp4	0	0	up	0	1.2946	17	1
7	f	35	Turkish	0	0	ivam	ivam_ris.mp3	1	up	0.5	F5.mp4	R10.mp4	0	right	left	0	0.6018	13	F5.mp4	R10.mp4	1	0	up	1	1.303	4	1
7	f	35	Turkish	0	0	limer	limer_fal.mp3	0	down	-0.5	F11.mp4	R1.mp4	0	left	right	0	0.7691	20	R1.mp4	F11.mp4	0	1	down	1	1.0857	7	0
7	f	35	Turkish	0	0	limer	limer_ris.mp3	1	up	0.5	R1.mp4	F9.mp4	1	left	left	1	2.0088	21	R1.mp4	F9.mp4	1	1	up	1	1.3058	2	1
7	f	35	Turkish	0	0	maro	maro_fal.mp3	0	down	-0.5	F7.mp4	R2.mp4	0	left	left	1	1.2911	1	F7.mp4	R2.mp4	1	0	down	1	1.2793	16	0
7	f	35	Turkish	0	0	maro	maro_ris.mp3	1	up	0.5	F8.mp4	R6.mp4	0	right	left	0	0.7478	7	F8.mp4	R6.mp4	1	0	up	1	1.1475	11	1
7	f	35	Turkish	0	0	reman	reman_fal.mp3	0	down	-0.5	F1.mp4	R11.mp4	0	left	left	1	0.6186	14	F1.mp4	R11.mp4	1	0	up	0	0.9884	13	1
7	f	35	Turkish	0	0	reman	reman_ris.mp3	1	up	0.5	F4.mp4	R4.mp4	0	right	left	0	0.6677	22	F4.mp4	R4.mp4	1	0	up	1	0.8273	5	1
7	f	35	Turkish	0	0	shinen	shinen_fal.mp3	0	down	-0.5	R4.mp4	F2.mp4	1	right	right	1	0.343	10	F2.mp4	R4.mp4	0	0	down	1	2.6486	3	0
7	f	35	Turkish	0	0	shinen	shinen_ris.mp3	1	up	0.5	F10.mp4	R3.mp4	0	right	left	0	2.1491	0	F10.mp4	R3.mp4	1	0	up	1	1.3636	20	1
7	f	35	Turkish	0	0	teya	teya_fal.mp3	0	down	-0.5	F10.mp4	R7.mp4	0	left	right	0	0.4694	2	R7.mp4	F10.mp4	0	1	up	0	1.0505	19	1
7	f	35	Turkish	0	0	teya	teya_ris.mp3	1	up	0.5	F12.mp4	R9.mp4	0	right	left	0	1.0539	4	F12.mp4	R9.mp4	1	0	up	1	1.4904	8	1
7	f	35	Turkish	0	0	tila	tila_fal.mp3	0	down	-0.5	R6.mp4	F12.mp4	1	right	left	0	0.9641	16	R6.mp4	F12.mp4	1	1	up	0	2.5035	18	1
7	f	35	Turkish	0	0	tila	tila_ris.mp3	1	up	0.5	F7.mp4	R8.mp4	0	right	right	1	0.5094	11	R8.mp4	F7.mp4	0	1	up	1	1.1974	9	1
7	f	35	Turkish	0	0	vewa	vewa_fal.mp3	0	down	-0.5	F5.mp4	R10.mp4	0	left	left	1	0.9146	19	F5.mp4	R10.mp4	1	0	down	1	0.9381	10	0
7	f	35	Turkish	0	0	vewa	vewa_ris.mp3	1	up	0.5	R2.mp4	F1.mp4	1	left	left	1	0.7104	18	R2.mp4	F1.mp4	1	1	up	1	1.2458	22	1
7	f	35	Turkish	0	0	wemi	wemi_fal.mp3	0	down	-0.5	R3.mp4	F4.mp4	1	right	left	0	2.5703	23	R3.mp4	F4.mp4	1	1	down	1	1.193	1	0
7	f	35	Turkish	0	0	wemi	wemi_ris.mp3	1	up	0.5	R5.mp4	F11.mp4	1	left	right	0	0.4432	8	F11.mp4	R5.mp4	0	0	up	1	1.5963	15	1
7	f	35	Turkish	0	0	yilel	yilel_fal.mp3	0	down	-0.5	F9.mp4	R12.mp4	0	left	right	0	5.0306	9	R12.mp4	F9.mp4	0	1	down	1	0.8246	21	0
7	f	35	Turkish	0	0	yilel	yilel_ris.mp3	1	up	0.5	R11.mp4	F3.mp4	1	left	left	1	1.0683	5	R11.mp4	F3.mp4	1	1	up	1	2.1094	12	1
7	f	35	Turkish	0	0	yina	yina_fal.mp3	0	down	-0.5	R9.mp4	F8.mp4	1	right	right	1	0.944	3	F8.mp4	R9.mp4	0	0	down	1	1.996	23	0
7	f	35	Turkish	0	0	yina	yina_ris.mp3	1	up	0.5	R7.mp4	F2.mp4	1	left	right	0	0.9032	6	F2.mp4	R7.mp4	0	0	up	1	1.779	14	1
7	f	35	Turkish	0	0	ylo	ylo_fal.mp3	0	down	-0.5	F6.mp4	R8.mp4	0	left	right	0	0.5101	12	R8.mp4	F6.mp4	0	1	up	0	2.2863	0	1
7	f	35	Turkish	0	0	ylo	ylo_ris.mp3	1	up	0.5	R12.mp4	F6.mp4	1	left	left	1	0.8837	17	R12.mp4	F6.mp4	1	1	down	0	1.6137	6	0
8	f	19	Turkish	0	0	ivam	ivam_fal.mp3	0	down	-0.5	R5.mp4	F2.mp4	1	right	right	1	1.0207	0	F2.mp4	R5.mp4	0	0	down	1	1.577	4	0
8	f	19	Turkish	0	0	ivam	ivam_ris.mp3	1	up	0.5	R1.mp4	F7.mp4	1	left	left	1	6.7348	3	R1.mp4	F7.mp4	1	1	down	0	1.3616	1	0
8	f	19	Turkish	0	0	limer	limer_fal.mp3	0	down	-0.5	F6.mp4	R12.mp4	0	left	right	0	2.5846	7	R12.mp4	F6.mp4	0	1	down	1	2.3274	20	0
8	f	19	Turkish	0	0	limer	limer_ris.mp3	1	up	0.5	F10.mp4	R2.mp4	0	right	right	1	1.1837	22	R2.mp4	F10.mp4	0	1	down	0	1.2304	13	0
8	f	19	Turkish	0	0	maro	maro_fal.mp3	0	down	-0.5	F10.mp4	R11.mp4	0	left	right	0	0.4503	12	R11.mp4	F10.mp4	0	1	down	1	1.3938	17	0
8	f	19	Turkish	0	0	maro	maro_ris.mp3	1	up	0.5	R9.mp4	F8.mp4	1	left	right	0	0.5158	14	F8.mp4	R9.mp4	0	0	up	1	1.3322	23	1
8	f	19	Turkish	0	0	reman	reman_fal.mp3	0	down	-0.5	R2.mp4	F4.mp4	1	right	left	0	4.6541	6	R2.mp4	F4.mp4	1	1	down	1	1.6948	11	0
8	f	19	Turkish	0	0	reman	reman_ris.mp3	1	up	0.5	R11.mp4	F3.mp4	1	left	right	0	0.6196	13	F3.mp4	R11.mp4	0	0	up	1	2.2659	2	1
8	f	19	Turkish	0	0	shinen	shinen_fal.mp3	0	down	-0.5	R7.mp4	F7.mp4	1	right	right	1	6.2371	11	F7.mp4	R7.mp4	0	0	down	1	1.4956	14	0
8	f	19	Turkish	0	0	shinen	shinen_ris.mp3	1	up	0.5	F11.mp4	R10.mp4	0	right	left	0	0.8839	5	F11.mp4	R10.mp4	1	0	up	1	1.1996	21	1
8	f	19	Turkish	0	0	teya	teya_fal.mp3	0	down	-0.5	F1.mp4	R3.mp4	0	left	right	0	4.1866	1	R3.mp4	F1.mp4	0	1	down	1	1.1601	10	0
8	f	19	Turkish	0	0	teya	teya_ris.mp3	1	up	0.5	R5.mp4	F1.mp4	1	left	left	1	0.984	20	R5.mp4	F1.mp4	1	1	up	1	1.3628	5	1
8	f	19	Turkish	0	0	tila	tila_fal.mp3	0	down	-0.5	R1.mp4	F8.mp4	1	right	right	1	0.7504	21	F8.mp4	R1.mp4	0	0	down	1	1.5086	8	0
8	f	19	Turkish	0	0	tila	tila_ris.mp3	1	up	0.5	R3.mp4	F9.mp4	1	left	right	0	0.3848	17	F9.mp4	R3.mp4	0	0	up	1	5.7105	0	1
8	f	19	Turkish	0	0	vewa	vewa_fal.mp3	0	down	-0.5	F11.mp4	R6.mp4	0	left	right	0	6.872	15	R6.mp4	F11.mp4	0	1	down	1	1.8939	7	0
8	f	19	Turkish	0	0	vewa	vewa_ris.mp3	1	up	0.5	R6.mp4	F12.mp4	1	left	left	1	1.1732	10	R6.mp4	F12.mp4	1	1	up	1	1.4284	6	1
8	f	19	Turkish	0	0	wemi	wemi_fal.mp3	0	down	-0.5	F5.mp4	R4.mp4	0	left	right	0	0.6218	23	R4.mp4	F5.mp4	0	1	down	1	1.2276	22	0
8	f	19	Turkish	0	0	wemi	wemi_ris.mp3	1	up	0.5	R12.mp4	F2.mp4	1	left	left	1	0.8502	4	R12.mp4	F2.mp4	1	1	up	1	1.8918	9	1
8	f	19	Turkish	0	0	yilel	yilel_fal.mp3	0	down	-0.5	R10.mp4	F12.mp4	1	right	left	0	0.6006	19	R10.mp4	F12.mp4	1	1	down	1	1.0432	12	0
8	f	19	Turkish	0	0	yilel	yilel_ris.mp3	1	up	0.5	R8.mp4	F5.mp4	1	left	left	1	0.301	2	R8.mp4	F5.mp4	1	1	up	1	1.197	18	1
8	f	19	Turkish	0	0	yina	yina_fal.mp3	0	down	-0.5	R9.mp4	F3.mp4	1	right	right	1	0.3679	18	F3.mp4	R9.mp4	0	0	down	1	1.1765	15	0
8	f	19	Turkish	0	0	yina	yina_ris.mp3	1	up	0.5	R4.mp4	F6.mp4	1	left	right	0	0.6841	16	F6.mp4	R4.mp4	0	0	up	1	1.6638	16	1
8	f	19	Turkish	0	0	ylo	ylo_fal.mp3	0	down	-0.5	F9.mp4	R8.mp4	0	left	left	1	0.5196	9	F9.mp4	R8.mp4	1	0	down	1	1.2436	3	0
8	f	19	Turkish	0	0	ylo	ylo_ris.mp3	1	up	0.5	F4.mp4	R7.mp4	0	right	left	0	1.1378	8	F4.mp4	R7.mp4	1	0	up	1	1.4466	19	1
9	m	28	Turkish	0	0	ivam	ivam_fal.mp3	0	down	-0.5	R9.mp4	F12.mp4	1	right	right	1	0.5525	2	F12.mp4	R9.mp4	0	0	up	0	0.8107	16	1
9	m	28	Turkish	0	0	ivam	ivam_ris.mp3	1	up	0.5	F5.mp4	R6.mp4	0	right	left	0	0.184	21	F5.mp4	R6.mp4	1	0	up	1	0.8087	11	1
9	m	28	Turkish	0	0	limer	limer_fal.mp3	0	down	-0.5	R2.mp4	F3.mp4	1	right	left	0	0.5846	19	R2.mp4	F3.mp4	1	1	down	1	1.6758	10	0
9	m	28	Turkish	0	0	limer	limer_ris.mp3	1	up	0.5	F4.mp4	R2.mp4	0	right	left	0	6.4807	4	F4.mp4	R2.mp4	1	0	up	1	1.7419	1	1
9	m	28	Turkish	0	0	maro	maro_fal.mp3	0	down	-0.5	F9.mp4	R11.mp4	0	left	right	0	0.5332	20	R11.mp4	F9.mp4	0	1	down	1	0.8612	3	0
9	m	28	Turkish	0	0	maro	maro_ris.mp3	1	up	0.5	R5.mp4	F6.mp4	1	left	left	1	1.5153	14	R5.mp4	F6.mp4	1	1	up	1	4.3167	0	1
9	m	28	Turkish	0	0	reman	reman_fal.mp3	0	down	-0.5	F7.mp4	R3.mp4	0	left	left	1	0.3745	3	F7.mp4	R3.mp4	1	0	up	0	1.2947	12	1
9	m	28	Turkish	0	0	reman	reman_ris.mp3	1	up	0.5	F3.mp4	R3.mp4	0	right	right	1	0.5121	12	R3.mp4	F3.mp4	0	1	up	1	0.5477	19	1
9	m	28	Turkish	0	0	shinen	shinen_fal.mp3	0	down	-0.5	F11.mp4	R8.mp4	0	left	right	0	0.0518	23	R8.mp4	F11.mp4	0	1	down	1	0.8747	17	0
9	m	28	Turkish	0	0	shinen	shinen_ris.mp3	1	up	0.5	F12.mp4	R4.mp4	0	right	left	0	1.9162	5	F12.mp4	R4.mp4	1	0	down	0	1.0428	21	0
9	m	28	Turkish	0	0	teya	teya_fal.mp3	0	down	-0.5	F1.mp4	R5.mp4	0	left	left	1	0.4551	6	F1.mp4	R5.mp4	1	0	up	0	0.8829	20	1
9	m	28	Turkish	0	0	teya	teya_ris.mp3	1	up	0.5	F11.mp4	R12.mp4	0	right	right	1	0.3469	22	R12.mp4	F11.mp4	0	1	down	0	0.7063	22	0
9	m	28	Turkish	0	0	tila	tila_fal.mp3	0	down	-0.5	F4.mp4	R4.mp4	0	left	right	0	10.3991	0	R4.mp4	F4.mp4	0	1	down	1	1.3244	15	0
9	m	28	Turkish	0	0	tila	tila_ris.mp3	1	up	0.5	R10.mp4	F8.mp4	1	left	right	0	0.588	15	F8.mp4	R10.mp4	0	0	up	1	0.7495	7	1
9	m	28	Turkish	0	0	vewa	vewa_fal.mp3	0	down	-0.5	F2.mp4	R12.mp4	0	left	left	1	0.3895	13	F2.mp4	R12.mp4	1	0	up	0	0.7265	6	1
9	m	28	Turkish	0	0	vewa	vewa_ris.mp3	1	up	0.5	F7.mp4	R11.mp4	0	right	right	1	0.8419	8	R11.mp4	F7.mp4	0	1	up	1	0.8606	18	1
9	m	28	Turkish	0	0	wemi	wemi_fal.mp3	0	down	-0.5	F6.mp4	R1.mp4	0	left	right	0	4.399	10	R1.mp4	F6.mp4	0	1	down	1	1.007	5	0
9	m	28	Turkish	0	0	wemi	wemi_ris.mp3	1	up	0.5	R9.mp4	F9.mp4	1	left	right	0	0.2136	16	F9.mp4	R9.mp4	0	0	down	0	0.915	9	0
9	m	28	Turkish	0	0	yilel	yilel_fal.mp3	0	down	-0.5	F10.mp4	R7.mp4	0	left	left	1	0.5869	1	F10.mp4	R7.mp4	1	0	down	1	0.7437	23	0
9	m	28	Turkish	0	0	yilel	yilel_ris.mp3	1	up	0.5	F10.mp4	R7.mp4	0	right	right	1	0.8997	11	R7.mp4	F10.mp4	0	1	down	0	0.7645	13	0
9	m	28	Turkish	0	0	yina	yina_fal.mp3	0	down	-0.5	R6.mp4	F5.mp4	1	right	left	0	1.2428	17	R6.mp4	F5.mp4	1	1	down	1	0.7123	14	0
9	m	28	Turkish	0	0	yina	yina_ris.mp3	1	up	0.5	R1.mp4	F2.mp4	1	left	right	0	4.1592	7	F2.mp4	R1.mp4	0	0	up	1	3.8603	2	1
9	m	28	Turkish	0	0	ylo	ylo_fal.mp3	0	down	-0.5	R10.mp4	F8.mp4	1	right	right	1	0.457	18	F8.mp4	R10.mp4	0	0	up	0	0.9179	8	1
9	m	28	Turkish	0	0	ylo	ylo_ris.mp3	1	up	0.5	R8.mp4	F1.mp4	1	left	right	0	2.983	9	F1.mp4	R8.mp4	0	0	down	0	1.4107	4	0
10	f	28	Turkish	0	0	ivam	ivam_fal.mp3	0	down	-0.5	F11.mp4	R7.mp4	0	left	right	0	0.1944	22	R7.mp4	F11.mp4	0	1	down	1	1.1898	20	0
10	f	28	Turkish	0	0	ivam	ivam_ris.mp3	1	up	0.5	F10.mp4	R6.mp4	0	right	right	1	0.7196	17	R6.mp4	F10.mp4	0	1	up	1	1.005	22	1
10	f	28	Turkish	0	0	limer	limer_fal.mp3	0	down	-0.5	F8.mp4	R2.mp4	0	left	left	1	0.9186	14	F8.mp4	R2.mp4	1	0	down	1	0.9664	11	0
10	f	28	Turkish	0	0	limer	limer_ris.mp3	1	up	0.5	R5.mp4	F3.mp4	1	left	left	1	0.641	15	R5.mp4	F3.mp4	1	1	up	1	0.9637	10	1
10	f	28	Turkish	0	0	maro	maro_fal.mp3	0	down	-0.5	R5.mp4	F10.mp4	1	right	right	1	0.3212	13	F10.mp4	R5.mp4	0	0	up	0	1.5218	17	1
10	f	28	Turkish	0	0	maro	maro_ris.mp3	1	up	0.5	F4.mp4	R7.mp4	0	right	left	0	0.3861	23	F4.mp4	R7.mp4	1	0	up	1	1.189	18	1
10	f	28	Turkish	0	0	reman	reman_fal.mp3	0	down	-0.5	F3.mp4	R1.mp4	0	left	left	1	0.2858	10	F3.mp4	R1.mp4	1	0	down	1	1.9459	7	0
10	f	28	Turkish	0	0	reman	reman_ris.mp3	1	up	0.5	F9.mp4	R12.mp4	0	right	left	0	0.6431	16	F9.mp4	R12.mp4	1	0	up	1	1.1217	8	1
10	f	28	Turkish	0	0	shinen	shinen_fal.mp3	0	down	-0.5	F7.mp4	R3.mp4	0	left	left	1	0.609	11	F7.mp4	R3.mp4	1	0	down	1	1.2121	9	0
10	f	28	Turkish	0	0	shinen	shinen_ris.mp3	1	up	0.5	F5.mp4	R1.mp4	0	right	right	1	1.1351	7	R1.mp4	F5.mp4	0	1	up	1	2.0741	0	1
10	f	28	Turkish	0	0	teya	teya_fal.mp3	0	down	-0.5	R8.mp4	F6.mp4	1	right	right	1	0.9719	8	F6.mp4	R8.mp4	0	0	down	1	1.2773	3	0
10	f	28	Turkish	0	0	teya	teya_ris.mp3	1	up	0.5	R11.mp4	F1.mp4	1	left	left	1	2.9042	9	R11.mp4	F1.mp4	1	1	up	1	1.1887	6	1
10	f	28	Turkish	0	0	tila	tila_fal.mp3	0	down	-0.5	R10.mp4	F9.mp4	1	right	left	0	6.073	4	R10.mp4	F9.mp4	1	1	down	1	1.4557	13	0
10	f	28	Turkish	0	0	tila	tila_ris.mp3	1	up	0.5	R8.mp4	F12.mp4	1	left	left	1	0.3217	20	R8.mp4	F12.mp4	1	1	up	1	1.0154	19	1
10	f	28	Turkish	0	0	vewa	vewa_fal.mp3	0	down	-0.5	F2.mp4	R11.mp4	0	left	left	1	0.7063	3	F2.mp4	R11.mp4	1	0	down	1	1.0484	23	0
10	f	28	Turkish	0	0	vewa	vewa_ris.mp3	1	up	0.5	R9.mp4	F2.mp4	1	left	right	0	0.7282	19	F2.mp4	R9.mp4	0	0	up	1	1.0416	16	1
10	f	28	Turkish	0	0	wemi	wemi_fal.mp3	0	down	-0.5	R9.mp4	F5.mp4	1	right	left	0	0.4986	18	R9.mp4	F5.mp4	1	1	down	1	1.092	12	0
10	f	28	Turkish	0	0	wemi	wemi_ris.mp3	1	up	0.5	R10.mp4	F7.mp4	1	left	right	0	0.5741	5	F7.mp4	R10.mp4	0	0	up	1	1.5226	5	1
10	f	28	Turkish	0	0	yilel	yilel_fal.mp3	0	down	-0.5	R6.mp4	F1.mp4	1	right	right	1	0.9232	6	F1.mp4	R6.mp4	0	0	down	1	1.4628	2	0
10	f	28	Turkish	0	0	yilel	yilel_ris.mp3	1	up	0.5	F11.mp4	R3.mp4	0	right	left	0	0.7521	2	F11.mp4	R3.mp4	1	0	up	1	1.9728	1	1
10	f	28	Turkish	0	0	yina	yina_fal.mp3	0	down	-0.5	R12.mp4	F12.mp4	1	right	left	0	0.8575	1	R12.mp4	F12.mp4	1	1	down	1	1.0382	14	0
10	f	28	Turkish	0	0	yina	yina_ris.mp3	1	up	0.5	R4.mp4	F8.mp4	1	left	left	1	0.5697	12	R4.mp4	F8.mp4	1	1	up	1	0.8555	21	1
10	f	28	Turkish	0	0	ylo	ylo_fal.mp3	0	down	-0.5	F4.mp4	R4.mp4	0	left	right	0	0.6839	0	R4.mp4	F4.mp4	0	1	up	0	1.1908	4	1
10	f	28	Turkish	0	0	ylo	ylo_ris.mp3	1	up	0.5	F6.mp4	R2.mp4	0	right	right	1	0.6678	21	R2.mp4	F6.mp4	0	1	up	1	0.7914	15	1
11	f	29	turkish	0	0	ivam	ivam_fal.mp3	0	down	-0.5	R11.mp4	F4.mp4	1	right	left	0	0.5435	8	R11.mp4	F4.mp4	1	1	down	1	1.4128	9	0
11	f	29	turkish	0	0	ivam	ivam_ris.mp3	1	up	0.5	F1.mp4	R12.mp4	0	right	right	1	0.5173	16	R12.mp4	F1.mp4	0	1	up	1	1.3342	0	1
11	f	29	turkish	0	0	limer	limer_fal.mp3	0	down	-0.5	F3.mp4	R5.mp4	0	left	left	1	0.2708	14	F3.mp4	R5.mp4	1	0	up	0	1.056	14	1
11	f	29	turkish	0	0	limer	limer_ris.mp3	1	up	0.5	R10.mp4	F8.mp4	1	left	left	1	0.4731	13	R10.mp4	F8.mp4	1	1	up	1	0.8431	18	1
11	f	29	turkish	0	0	maro	maro_fal.mp3	0	down	-0.5	F7.mp4	R3.mp4	0	left	left	1	0.5527	5	F7.mp4	R3.mp4	1	0	down	1	1.428	21	0
11	f	29	turkish	0	0	maro	maro_ris.mp3	1	up	0.5	F10.mp4	R5.mp4	0	right	left	0	0.6328	19	F10.mp4	R5.mp4	1	0	up	1	1.4631	4	1
11	f	29	turkish	0	0	reman	reman_fal.mp3	0	down	-0.5	F10.mp4	R10.mp4	0	left	left	1	0.7378	22	F10.mp4	R10.mp4	1	0	up	0	1.2391	10	1
11	f	29	turkish	0	0	reman	reman_ris.mp3	1	up	0.5	R6.mp4	F9.mp4	1	left	right	0	0.6481	18	F9.mp4	R6.mp4	0	0	up	1	1.0403	2	1
11	f	29	turkish	0	0	shinen	shinen_fal.mp3	0	down	-0.5	R6.mp4	F12.mp4	1	right	right	1	6.9102	4	F12.mp4	R6.mp4	0	0	down	1	0.9803	12	0
11	f	29	turkish	0	0	shinen	shinen_ris.mp3	1	up	0.5	F12.mp4	R11.mp4	0	right	left	0	0.7428	3	F12.mp4	R11.mp4	1	0	down	0	0.7125	17	0
11	f	29	turkish	0	0	teya	teya_fal.mp3	0	down	-0.5	F8.mp4	R1.mp4	0	left	left	1	1.0593	9	F8.mp4	R1.mp4	1	0	up	0	1.2269	8	1
11	f	29	turkish	0	0	teya	teya_ris.mp3	1	up	0.5	F6.mp4	R9.mp4	0	right	left	0	1.0909	7	F6.mp4	R9.mp4	1	0	up	1	1.1067	22	1
11	f	29	turkish	0	0	tila	tila_fal.mp3	0	down	-0.5	R2.mp4	F2.mp4	1	right	right	1	0.7589	11	F2.mp4	R2.mp4	0	0	up	0	1.2879	5	1
11	f	29	turkish	0	0	tila	tila_ris.mp3	1	up	0.5	F7.mp4	R7.mp4	0	right	right	1	9e-04	0	R7.mp4	F7.mp4	0	1	up	1	1.3512	11	1
11	f	29	turkish	0	0	vewa	vewa_fal.mp3	0	down	-0.5	F5.mp4	R7.mp4	0	left	right	0	1.2435	6	R7.mp4	F5.mp4	0	1	down	1	1.5321	7	0
11	f	29	turkish	0	0	vewa	vewa_ris.mp3	1	up	0.5	R3.mp4	F11.mp4	1	left	left	1	0.7267	1	R3.mp4	F11.mp4	1	1	up	1	1.6099	19	1
11	f	29	turkish	0	0	wemi	wemi_fal.mp3	0	down	-0.5	F9.mp4	R8.mp4	0	left	left	1	0.356	20	F9.mp4	R8.mp4	1	0	up	0	1.2827	15	1
11	f	29	turkish	0	0	wemi	wemi_ris.mp3	1	up	0.5	R4.mp4	F4.mp4	1	left	right	0	0.709	12	F4.mp4	R4.mp4	0	0	down	0	1.0622	6	0
11	f	29	turkish	0	0	yilel	yilel_fal.mp3	0	down	-0.5	R4.mp4	F11.mp4	1	right	left	0	0.717	10	R4.mp4	F11.mp4	1	1	up	0	1.4184	3	1
11	f	29	turkish	0	0	yilel	yilel_ris.mp3	1	up	0.5	R1.mp4	F2.mp4	1	left	right	0	0.5001	15	F2.mp4	R1.mp4	0	0	up	1	1.1992	16	1
11	f	29	turkish	0	0	yina	yina_fal.mp3	0	down	-0.5	F6.mp4	R12.mp4	0	left	left	1	0.9547	2	F6.mp4	R12.mp4	1	0	down	1	0.9261	1	0
11	f	29	turkish	0	0	yina	yina_ris.mp3	1	up	0.5	R2.mp4	F5.mp4	1	left	right	0	0.3857	21	F5.mp4	R2.mp4	0	0	down	0	0.798	13	0
11	f	29	turkish	0	0	ylo	ylo_fal.mp3	0	down	-0.5	F1.mp4	R9.mp4	0	left	right	0	0.5398	23	R9.mp4	F1.mp4	0	1	down	1	1.0932	23	0
11	f	29	turkish	0	0	ylo	ylo_ris.mp3	1	up	0.5	F3.mp4	R8.mp4	0	right	right	1	0.6899	17	R8.mp4	F3.mp4	0	1	up	1	1.1041	20	1
12	f	30	Turkish	0	0	ivam	ivam_fal.mp3	0	down	-0.5	R4.mp4	F12.mp4	1	right	right	1	3.9397	19	F12.mp4	R4.mp4	0	0	up	0	3.2485	13	1
12	f	30	Turkish	0	0	ivam	ivam_ris.mp3	1	up	0.5	F5.mp4	R8.mp4	0	right	right	1	0.4342	23	R8.mp4	F5.mp4	0	1	up	1	1.13	18	1
12	f	30	Turkish	0	0	limer	limer_fal.mp3	0	down	-0.5	R1.mp4	F1.mp4	1	right	right	1	0.6856	17	F1.mp4	R1.mp4	0	0	down	1	0.9482	23	0
12	f	30	Turkish	0	0	limer	limer_ris.mp3	1	up	0.5	R1.mp4	F6.mp4	1	left	right	0	1.6023	8	F6.mp4	R1.mp4	0	0	up	1	1.1158	8	1
12	f	30	Turkish	0	0	maro	maro_fal.mp3	0	down	-0.5	R12.mp4	F3.mp4	1	right	right	1	0.0844	9	F3.mp4	R12.mp4	0	0	down	1	1.0816	2	0
12	f	30	Turkish	0	0	maro	maro_ris.mp3	1	up	0.5	R4.mp4	F11.mp4	1	left	right	0	0.5092	3	F11.mp4	R4.mp4	0	0	up	1	0.8979	21	1
12	f	30	Turkish	0	0	reman	reman_fal.mp3	0	down	-0.5	F6.mp4	R3.mp4	0	left	left	1	0.9093	5	F6.mp4	R3.mp4	1	0	down	1	0.8981	16	0
12	f	30	Turkish	0	0	reman	reman_ris.mp3	1	up	0.5	R10.mp4	F4.mp4	1	left	right	0	0.5187	16	F4.mp4	R10.mp4	0	0	up	1	1.1483	1	1
12	f	30	Turkish	0	0	shinen	shinen_fal.mp3	0	down	-0.5	F10.mp4	R6.mp4	0	left	left	1	1.0109	7	F10.mp4	R6.mp4	1	0	down	1	1.1653	19	0
12	f	30	Turkish	0	0	shinen	shinen_ris.mp3	1	up	0.5	R7.mp4	F7.mp4	1	left	right	0	1.3305	15	F7.mp4	R7.mp4	0	0	up	1	2.1817	14	1
12	f	30	Turkish	0	0	teya	teya_fal.mp3	0	down	-0.5	R8.mp4	F9.mp4	1	right	left	0	1.0263	10	R8.mp4	F9.mp4	1	1	up	0	2.2488	5	1
12	f	30	Turkish	0	0	teya	teya_ris.mp3	1	up	0.5	F12.mp4	R9.mp4	0	right	right	1	5.228	12	R9.mp4	F12.mp4	0	1	up	1	0.8654	22	1
12	f	30	Turkish	0	0	tila	tila_fal.mp3	0	down	-0.5	R2.mp4	F4.mp4	1	right	left	0	2.0648	13	R2.mp4	F4.mp4	1	1	down	1	2.2986	10	0
12	f	30	Turkish	0	0	tila	tila_ris.mp3	1	up	0.5	R11.mp4	F2.mp4	1	left	right	0	0.5014	22	F2.mp4	R11.mp4	0	0	up	1	0.9237	15	1
12	f	30	Turkish	0	0	vewa	vewa_fal.mp3	0	down	-0.5	R11.mp4	F7.mp4	1	right	right	1	3.5855	0	F7.mp4	R11.mp4	0	0	up	0	3.9161	9	1
12	f	30	Turkish	0	0	vewa	vewa_ris.mp3	1	up	0.5	R3.mp4	F8.mp4	1	left	right	0	0.8843	18	F8.mp4	R3.mp4	0	0	up	1	1.1137	6	1
12	f	30	Turkish	0	0	wemi	wemi_fal.mp3	0	down	-0.5	F8.mp4	R7.mp4	0	left	right	0	0.1683	20	R7.mp4	F8.mp4	0	1	down	1	1.914	0	0
12	f	30	Turkish	0	0	wemi	wemi_ris.mp3	1	up	0.5	F9.mp4	R2.mp4	0	right	left	0	0.4102	11	F9.mp4	R2.mp4	1	0	up	1	1.0316	4	1
12	f	30	Turkish	0	0	yilel	yilel_fal.mp3	0	down	-0.5	F11.mp4	R5.mp4	0	left	left	1	0.8335	14	F11.mp4	R5.mp4	1	0	up	0	1.2312	20	1
12	f	30	Turkish	0	0	yilel	yilel_ris.mp3	1	up	0.5	F3.mp4	R5.mp4	0	right	left	0	1.0565	2	F3.mp4	R5.mp4	1	0	up	1	1.1322	17	1
12	f	30	Turkish	0	0	yina	yina_fal.mp3	0	down	-0.5	F2.mp4	R9.mp4	0	left	left	1	1.1291	1	F2.mp4	R9.mp4	1	0	down	1	1.3151	3	0
12	f	30	Turkish	0	0	yina	yina_ris.mp3	1	up	0.5	R6.mp4	F1.mp4	1	left	left	1	1.5175	6	R6.mp4	F1.mp4	1	1	up	1	0.9151	11	1
12	f	30	Turkish	0	0	ylo	ylo_fal.mp3	0	down	-0.5	R10.mp4	F5.mp4	1	right	right	1	0.8365	21	F5.mp4	R10.mp4	0	0	down	1	0.9814	7	0
12	f	30	Turkish	0	0	ylo	ylo_ris.mp3	1	up	0.5	R12.mp4	F10.mp4	1	left	right	0	0.6637	4	F10.mp4	R12.mp4	0	0	down	0	1.9152	12	0
13	f	26	turkish	0	0	ivam	ivam_fal.mp3	0	down	-0.5	F10.mp4	R1.mp4	0	left	left	1	2.6339	14	F10.mp4	R1.mp4	1	0	down	1	1.2314	11	0
13	f	26	turkish	0	0	ivam	ivam_ris.mp3	1	up	0.5	R9.mp4	F4.mp4	1	left	right	0	3.3268	16	F4.mp4	R9.mp4	0	0	down	0	1.613	9	0
13	f	26	turkish	0	0	limer	limer_fal.mp3	0	down	-0.5	F12.mp4	R3.mp4	0	left	left	1	0.6007	3	F12.mp4	R3.mp4	1	0	down	1	1.2818	19	0
13	f	26	turkish	0	0	limer	limer_ris.mp3	1	up	0.5	F8.mp4	R8.mp4	0	right	right	1	2.9519	11	R8.mp4	F8.mp4	0	1	up	1	1.7471	10	1
13	f	26	turkish	0	0	maro	maro_fal.mp3	0	down	-0.5	F4.mp4	R8.mp4	0	left	left	1	0.3019	22	F4.mp4	R8.mp4	1	0	down	1	1.8788	8	0
13	f	26	turkish	0	0	maro	maro_ris.mp3	1	up	0.5	F12.mp4	R11.mp4	0	right	left	0	2.0757	18	F12.mp4	R11.mp4	1	0	up	1	1.8124	18	1
13	f	26	turkish	0	0	reman	reman_fal.mp3	0	down	-0.5	R5.mp4	F5.mp4	1	right	left	0	1.0166	15	R5.mp4	F5.mp4	1	1	up	0	1.6793	17	1
13	f	26	turkish	0	0	reman	reman_ris.mp3	1	up	0.5	F7.mp4	R5.mp4	0	right	right	1	0.7524	23	R5.mp4	F7.mp4	0	1	down	0	1.5463	5	0
13	f	26	turkish	0	0	shinen	shinen_fal.mp3	0	down	-0.5	R2.mp4	F9.mp4	1	right	left	0	1.201	8	R2.mp4	F9.mp4	1	1	down	1	2.5457	4	0
13	f	26	turkish	0	0	shinen	shinen_ris.mp3	1	up	0.5	R3.mp4	F6.mp4	1	left	left	1	2.0167	13	R3.mp4	F6.mp4	1	1	up	1	1.6616	20	1
13	f	26	turkish	0	0	teya	teya_fal.mp3	0	down	-0.5	R10.mp4	F1.mp4	1	right	left	0	1.7034	9	R10.mp4	F1.mp4	1	1	up	0	2.4767	1	1
13	f	26	turkish	0	0	teya	teya_ris.mp3	1	up	0.5	F5.mp4	R1.mp4	0	right	right	1	0.4505	21	R1.mp4	F5.mp4	0	1	up	1	1.5632	2	1
13	f	26	turkish	0	0	tila	tila_fal.mp3	0	down	-0.5	R9.mp4	F7.mp4	1	right	right	1	1.9837	6	F7.mp4	R9.mp4	0	0	up	0	1.1784	12	1
13	f	26	turkish	0	0	tila	tila_ris.mp3	1	up	0.5	F9.mp4	R12.mp4	0	right	left	0	1.3181	1	F9.mp4	R12.mp4	1	0	up	1	1.7624	21	1
13	f	26	turkish	0	0	vewa	vewa_fal.mp3	0	down	-0.5	R6.mp4	F8.mp4	1	right	right	1	0.0334	12	F8.mp4	R6.mp4	0	0	up	0	1.1484	22	1
13	f	26	turkish	0	0	vewa	vewa_ris.mp3	1	up	0.5	R10.mp4	F2.mp4	1	left	left	1	1.7515	4	R10.mp4	F2.mp4	1	1	up	1	8.5955	0	1
13	f	26	turkish	0	0	wemi	wemi_fal.mp3	0	down	-0.5	R7.mp4	F2.mp4	1	right	left	0	2.8545	7	R7.mp4	F2.mp4	1	1	up	0	1.4329	13	1
13	f	26	turkish	0	0	wemi	wemi_ris.mp3	1	up	0.5	F3.mp4	R7.mp4	0	right	right	1	1.3912	2	R7.mp4	F3.mp4	0	1	down	0	2.4448	6	0
13	f	26	turkish	0	0	yilel	yilel_fal.mp3	0	down	-0.5	F11.mp4	R12.mp4	0	left	left	1	3.4508	20	F11.mp4	R12.mp4	1	0	down	1	1.529	23	0
13	f	26	turkish	0	0	yilel	yilel_ris.mp3	1	up	0.5	F11.mp4	R2.mp4	0	right	left	0	1.1178	17	F11.mp4	R2.mp4	1	0	down	0	2.0463	16	0
13	f	26	turkish	0	0	yina	yina_fal.mp3	0	down	-0.5	F3.mp4	R4.mp4	0	left	left	1	1.101	5	F3.mp4	R4.mp4	1	0	down	1	1.2295	3	0
13	f	26	turkish	0	0	yina	yina_ris.mp3	1	up	0.5	R6.mp4	F1.mp4	1	left	left	1	1.0847	10	R6.mp4	F1.mp4	1	1	down	0	2.1146	15	0
13	f	26	turkish	0	0	ylo	ylo_fal.mp3	0	down	-0.5	F6.mp4	R11.mp4	0	left	right	0	2.4668	0	R11.mp4	F6.mp4	0	1	up	0	1.3449	14	1
13	f	26	turkish	0	0	ylo	ylo_ris.mp3	1	up	0.5	F10.mp4	R4.mp4	0	right	left	0	1.0505	19	F10.mp4	R4.mp4	1	0	down	0	2.745	7	0
14	f	47	turkish	0	0	ivam	ivam_fal.mp3	0	down	-0.5	F5.mp4	R2.mp4	0	left	right	0	13.2495	7	R2.mp4	F5.mp4	0	1	down	1	0.8063	17	0
14	f	47	turkish	0	0	ivam	ivam_ris.mp3	1	up	0.5	R3.mp4	F11.mp4	1	left	left	1	0.0845	18	R3.mp4	F11.mp4	1	1	up	1	0.8439	8	1
14	f	47	turkish	0	0	limer	limer_fal.mp3	0	down	-0.5	R7.mp4	F7.mp4	1	right	right	1	0.0712	21	F7.mp4	R7.mp4	0	0	down	1	0.8138	13	0
14	f	47	turkish	0	0	limer	limer_ris.mp3	1	up	0.5	F5.mp4	R4.mp4	0	right	right	1	0.2677	6	R4.mp4	F5.mp4	0	1	down	0	0.5277	21	0
14	f	47	turkish	0	0	maro	maro_fal.mp3	0	down	-0.5	F9.mp4	R8.mp4	0	left	right	0	0.5972	5	R8.mp4	F9.mp4	0	1	up	0	0.7511	20	1
14	f	47	turkish	0	0	maro	maro_ris.mp3	1	up	0.5	R5.mp4	F12.mp4	1	left	left	1	0.0744	12	R5.mp4	F12.mp4	1	1	up	1	1.073	10	1
14	f	47	turkish	0	0	reman	reman_fal.mp3	0	down	-0.5	F10.mp4	R3.mp4	0	left	left	1	0.0344	2	F10.mp4	R3.mp4	1	0	up	0	0.7758	23	1
14	f	47	turkish	0	0	reman	reman_ris.mp3	1	up	0.5	R8.mp4	F9.mp4	1	left	left	1	11.5641	10	R8.mp4	F9.mp4	1	1	up	1	0.8068	7	1
14	f	47	turkish	0	0	shinen	shinen_fal.mp3	0	down	-0.5	R5.mp4	F11.mp4	1	right	right	1	8.0294	16	F11.mp4	R5.mp4	0	0	down	1	0.9641	9	0
14	f	47	turkish	0	0	shinen	shinen_ris.mp3	1	up	0.5	R2.mp4	F3.mp4	1	left	right	0	0.4866	0	F3.mp4	R2.mp4	0	0	down	0	1.1254	6	0
14	f	47	turkish	0	0	teya	teya_fal.mp3	0	down	-0.5	R4.mp4	F1.mp4	1	right	left	0	15.2045	14	R4.mp4	F1.mp4	1	1	down	1	1.3188	1	0
14	f	47	turkish	0	0	teya	teya_ris.mp3	1	up	0.5	R12.mp4	F7.mp4	1	left	left	1	12.4987	13	R12.mp4	F7.mp4	1	1	down	0	0.9074	3	0
14	f	47	turkish	0	0	tila	tila_fal.mp3	0	down	-0.5	F4.mp4	R9.mp4	0	left	right	0	15.8708	1	R9.mp4	F4.mp4	0	1	down	1	0.7103	19	0
14	f	47	turkish	0	0	tila	tila_ris.mp3	1	up	0.5	F10.mp4	R10.mp4	0	right	right	1	15.2192	4	R10.mp4	F10.mp4	0	1	down	0	0.778	11	0
14	f	47	turkish	0	0	vewa	vewa_fal.mp3	0	down	-0.5	R11.mp4	F3.mp4	1	right	right	1	0.3217	23	F3.mp4	R11.mp4	0	0	up	0	0.7059	16	1
14	f	47	turkish	0	0	vewa	vewa_ris.mp3	1	up	0.5	F6.mp4	R1.mp4	0	right	left	0	0.4183	11	F6.mp4	R1.mp4	1	0	up	1	2.4275	0	1
14	f	47	turkish	0	0	wemi	wemi_fal.mp3	0	down	-0.5	F6.mp4	R6.mp4	0	left	right	0	11.3399	19	R6.mp4	F6.mp4	0	1	down	1	0.8299	15	0
14	f	47	turkish	0	0	wemi	wemi_ris.mp3	1	up	0.5	F2.mp4	R7.mp4	0	right	right	1	21.1252	22	R7.mp4	F2.mp4	0	1	down	0	0.7829	22	0
14	f	47	turkish	0	0	yilel	yilel_fal.mp3	0	down	-0.5	F8.mp4	R10.mp4	0	left	left	1	13.5664	20	F8.mp4	R10.mp4	1	0	down	1	0.86	12	0
14	f	47	turkish	0	0	yilel	yilel_ris.mp3	1	up	0.5	R11.mp4	F4.mp4	1	left	left	1	0.1339	8	R11.mp4	F4.mp4	1	1	down	0	0.6237	4	0
14	f	47	turkish	0	0	yina	yina_fal.mp3	0	down	-0.5	F12.mp4	R12.mp4	0	left	right	0	15.8242	9	R12.mp4	F12.mp4	0	1	down	1	0.6481	18	0
14	f	47	turkish	0	0	yina	yina_ris.mp3	1	up	0.5	R6.mp4	F8.mp4	1	left	right	0	6.6448	3	F8.mp4	R6.mp4	0	0	down	0	0.6434	5	0
14	f	47	turkish	0	0	ylo	ylo_fal.mp3	0	down	-0.5	R1.mp4	F2.mp4	1	right	left	0	15.0741	17	R1.mp4	F2.mp4	1	1	up	0	0.5754	14	1
14	f	47	turkish	0	0	ylo	ylo_ris.mp3	1	up	0.5	F1.mp4	R9.mp4	0	right	left	0	0.468	15	F1.mp4	R9.mp4	1	0	up	1	2.5694	2	1
15	m	28	Turkish	0	0	ivam	ivam_fal.mp3	0	down	-0.5	F2.mp4	R8.mp4	0	left	left	1	0.2961	18	F2.mp4	R8.mp4	1	0	up	0	1.2246	2	1
15	m	28	Turkish	0	0	ivam	ivam_ris.mp3	1	up	0.5	R11.mp4	F7.mp4	1	left	left	1	1.3382	9	R11.mp4	F7.mp4	1	1	up	1	1.8469	11	1
15	m	28	Turkish	0	0	limer	limer_fal.mp3	0	down	-0.5	R11.mp4	F8.mp4	1	right	right	1	0.4603	17	F8.mp4	R11.mp4	0	0	up	0	0.9617	14	1
15	m	28	Turkish	0	0	limer	limer_ris.mp3	1	up	0.5	F2.mp4	R3.mp4	0	right	left	0	1.4534	13	F2.mp4	R3.mp4	1	0	up	1	4.2892	0	1
15	m	28	Turkish	0	0	maro	maro_fal.mp3	0	down	-0.5	F10.mp4	R4.mp4	0	left	right	0	3.6435	12	R4.mp4	F10.mp4	0	1	up	0	1.0144	22	1
15	m	28	Turkish	0	0	maro	maro_ris.mp3	1	up	0.5	R2.mp4	F11.mp4	1	left	left	1	0.3402	19	R2.mp4	F11.mp4	1	1	up	1	1.3471	17	1
15	m	28	Turkish	0	0	reman	reman_fal.mp3	0	down	-0.5	R5.mp4	F7.mp4	1	right	left	0	0.4152	21	R5.mp4	F7.mp4	1	1	up	0	0.8658	23	1
15	m	28	Turkish	0	0	reman	reman_ris.mp3	1	up	0.5	R4.mp4	F1.mp4	1	left	right	0	2.0458	10	F1.mp4	R4.mp4	0	0	up	1	1.4626	18	1
15	m	28	Turkish	0	0	shinen	shinen_fal.mp3	0	down	-0.5	F1.mp4	R12.mp4	0	left	right	0	0.446	15	R12.mp4	F1.mp4	0	1	up	0	1.2995	12	1
15	m	28	Turkish	0	0	shinen	shinen_ris.mp3	1	up	0.5	F9.mp4	R7.mp4	0	right	left	0	1.9981	8	F9.mp4	R7.mp4	1	0	up	1	1.5726	20	1
15	m	28	Turkish	0	0	teya	teya_fal.mp3	0	down	-0.5	F5.mp4	R3.mp4	0	left	left	1	2.1796	1	F5.mp4	R3.mp4	1	0	up	0	2.0148	16	1
15	m	28	Turkish	0	0	teya	teya_ris.mp3	1	up	0.5	F10.mp4	R9.mp4	0	right	right	1	0.8522	7	R9.mp4	F10.mp4	0	1	up	1	1.3295	4	1
15	m	28	Turkish	0	0	tila	tila_fal.mp3	0	down	-0.5	F3.mp4	R10.mp4	0	left	left	1	0.5193	16	F3.mp4	R10.mp4	1	0	down	1	2.0623	7	0
15	m	28	Turkish	0	0	tila	tila_ris.mp3	1	up	0.5	R1.mp4	F3.mp4	1	left	left	1	0.6957	6	R1.mp4	F3.mp4	1	1	up	1	1.9485	10	1
15	m	28	Turkish	0	0	vewa	vewa_fal.mp3	0	down	-0.5	R7.mp4	F4.mp4	1	right	left	0	0.89	23	R7.mp4	F4.mp4	1	1	down	1	1.5499	1	0
15	m	28	Turkish	0	0	vewa	vewa_ris.mp3	1	up	0.5	R6.mp4	F8.mp4	1	left	right	0	0.6357	3	F8.mp4	R6.mp4	0	0	up	1	1.3651	13	1
15	m	28	Turkish	0	0	wemi	wemi_fal.mp3	0	down	-0.5	R1.mp4	F11.mp4	1	right	left	0	0.4324	2	R1.mp4	F11.mp4	1	1	up	0	1.4651	8	1
15	m	28	Turkish	0	0	wemi	wemi_ris.mp3	1	up	0.5	R5.mp4	F5.mp4	1	left	left	1	0.4112	14	R5.mp4	F5.mp4	1	1	up	1	1.0643	21	1
15	m	28	Turkish	0	0	yilel	yilel_fal.mp3	0	down	-0.5	F9.mp4	R6.mp4	0	left	right	0	0.4381	22	R6.mp4	F9.mp4	0	1	down	1	1.1309	6	0
15	m	28	Turkish	0	0	yilel	yilel_ris.mp3	1	up	0.5	R8.mp4	F6.mp4	1	left	left	1	0.4604	11	R8.mp4	F6.mp4	1	1	up	1	1.4061	3	1
15	m	28	Turkish	0	0	yina	yina_fal.mp3	0	down	-0.5	R9.mp4	F6.mp4	1	right	right	1	0.7054	4	F6.mp4	R9.mp4	0	0	up	0	1.9141	9	1
15	m	28	Turkish	0	0	yina	yina_ris.mp3	1	up	0.5	F4.mp4	R10.mp4	0	right	left	0	1.766	5	F4.mp4	R10.mp4	1	0	up	1	2.5681	19	1
15	m	28	Turkish	0	0	ylo	ylo_fal.mp3	0	down	-0.5	R2.mp4	F12.mp4	1	right	right	1	1.1717	0	F12.mp4	R2.mp4	0	0	up	0	2.665	5	1
15	m	28	Turkish	0	0	ylo	ylo_ris.mp3	1	up	0.5	R12.mp4	F12.mp4	1	left	right	0	0.4818	20	F12.mp4	R12.mp4	0	0	down	0	1.6487	15	0
16	f	28	turkish	0	0	ivam	ivam_fal.mp3	0	down	-0.5	R5.mp4	F8.mp4	1	right	left	0	0.6898	13	R5.mp4	F8.mp4	1	1	down	1	1.461	16	0
16	f	28	turkish	0	0	ivam	ivam_ris.mp3	1	up	0.5	R5.mp4	F3.mp4	1	left	left	1	0.6185	21	R5.mp4	F3.mp4	1	1	up	1	1.1472	2	1
16	f	28	turkish	0	0	limer	limer_fal.mp3	0	down	-0.5	R4.mp4	F9.mp4	1	right	right	1	0.6401	12	F9.mp4	R4.mp4	0	0	down	1	2.5649	1	0
16	f	28	turkish	0	0	limer	limer_ris.mp3	1	up	0.5	F2.mp4	R2.mp4	0	right	left	0	0.4877	7	F2.mp4	R2.mp4	1	0	down	0	1.0653	18	0
16	f	28	turkish	0	0	maro	maro_fal.mp3	0	down	-0.5	R10.mp4	F6.mp4	1	right	right	1	0.6405	20	F6.mp4	R10.mp4	0	0	down	1	2.3387	6	0
16	f	28	turkish	0	0	maro	maro_ris.mp3	1	up	0.5	F11.mp4	R11.mp4	0	right	left	0	0.7184	1	F11.mp4	R11.mp4	1	0	down	0	1.9525	21	0
16	f	28	turkish	0	0	reman	reman_fal.mp3	0	down	-0.5	R7.mp4	F7.mp4	1	right	right	1	0.5094	5	F7.mp4	R7.mp4	0	0	down	1	2.0772	14	0
16	f	28	turkish	0	0	reman	reman_ris.mp3	1	up	0.5	F5.mp4	R9.mp4	0	right	left	0	0.4898	14	F5.mp4	R9.mp4	1	0	down	0	1.8528	19	0
16	f	28	turkish	0	0	shinen	shinen_fal.mp3	0	down	-0.5	F12.mp4	R6.mp4	0	left	right	0	0.5793	9	R6.mp4	F12.mp4	0	1	down	1	1.1641	20	0
16	f	28	turkish	0	0	shinen	shinen_ris.mp3	1	up	0.5	R3.mp4	F8.mp4	1	left	right	0	0.251	16	F8.mp4	R3.mp4	0	0	down	0	1.1026	22	0
16	f	28	turkish	0	0	teya	teya_fal.mp3	0	down	-0.5	F2.mp4	R1.mp4	0	left	right	0	0.66	8	R1.mp4	F2.mp4	0	1	up	0	1.9524	7	1
16	f	28	turkish	0	0	teya	teya_ris.mp3	1	up	0.5	R1.mp4	F4.mp4	1	left	left	1	1.2441	18	R1.mp4	F4.mp4	1	1	down	0	1.352	17	0
16	f	28	turkish	0	0	tila	tila_fal.mp3	0	down	-0.5	F1.mp4	R9.mp4	0	left	right	0	0.3592	11	R9.mp4	F1.mp4	0	1	up	0	2.615	12	1
16	f	28	turkish	0	0	tila	tila_ris.mp3	1	up	0.5	F7.mp4	R8.mp4	0	right	right	1	0.5079	22	R8.mp4	F7.mp4	0	1	up	1	1.0447	8	1
16	f	28	turkish	0	0	vewa	vewa_fal.mp3	0	down	-0.5	R3.mp4	F10.mp4	1	right	right	1	1.0707	0	F10.mp4	R3.mp4	0	0	up	0	3.269	0	1
16	f	28	turkish	0	0	vewa	vewa_ris.mp3	1	up	0.5	F6.mp4	R4.mp4	0	right	right	1	0.7273	19	R4.mp4	F6.mp4	0	1	up	1	1.6356	3	1
16	f	28	turkish	0	0	wemi	wemi_fal.mp3	0	down	-0.5	R11.mp4	F3.mp4	1	right	right	1	0.7041	23	F3.mp4	R11.mp4	0	0	down	1	2.5347	13	0
16	f	28	turkish	0	0	wemi	wemi_ris.mp3	1	up	0.5	R7.mp4	F1.mp4	1	left	left	1	0.5536	6	R7.mp4	F1.mp4	1	1	up	1	1.1028	9	1
16	f	28	turkish	0	0	yilel	yilel_fal.mp3	0	down	-0.5	F4.mp4	R12.mp4	0	left	left	1	0.8025	15	F4.mp4	R12.mp4	1	0	down	1	0.9089	23	0
16	f	28	turkish	0	0	yilel	yilel_ris.mp3	1	up	0.5	R10.mp4	F10.mp4	1	left	right	0	0.2187	4	F10.mp4	R10.mp4	0	0	down	0	2.3553	4	0
16	f	28	turkish	0	0	yina	yina_fal.mp3	0	down	-0.5	R8.mp4	F11.mp4	1	right	right	1	0.4576	3	F11.mp4	R8.mp4	0	0	down	1	1.9519	10	0
16	f	28	turkish	0	0	yina	yina_ris.mp3	1	up	0.5	R12.mp4	F12.mp4	1	left	left	1	0.4406	17	R12.mp4	F12.mp4	1	1	down	0	1.087	11	0
16	f	28	turkish	0	0	ylo	ylo_fal.mp3	0	down	-0.5	R2.mp4	F5.mp4	1	right	right	1	0.8953	2	F5.mp4	R2.mp4	0	0	down	1	2.0024	15	0
16	f	28	turkish	0	0	ylo	ylo_ris.mp3	1	up	0.5	F9.mp4	R6.mp4	0	right	left	0	0.4029	10	F9.mp4	R6.mp4	1	0	down	0	2.9022	5	0
17	f	23	turkish	0	0	ivam	ivam_fal.mp3	0	down	-0.5	R11.mp4	F5.mp4	1	right	right	1	0.72	13	F5.mp4	R11.mp4	0	0	up	0	2.731	23	1
17	f	23	turkish	0	0	ivam	ivam_ris.mp3	1	up	0.5	F7.mp4	R9.mp4	0	right	left	0	0.186	5	F7.mp4	R9.mp4	1	0	up	1	2.827	4	1
17	f	23	turkish	0	0	limer	limer_fal.mp3	0	down	-0.5	F7.mp4	R4.mp4	0	left	right	0	6.885	20	R4.mp4	F7.mp4	0	1	down	1	2.15	17	0
17	f	23	turkish	0	0	limer	limer_ris.mp3	1	up	0.5	R7.mp4	F12.mp4	1	left	right	0	4.752	14	F12.mp4	R7.mp4	0	0	down	0	2.913	10	0
17	f	23	turkish	0	0	maro	maro_fal.mp3	0	down	-0.5	R9.mp4	F12.mp4	1	right	right	1	3.769	16	F12.mp4	R9.mp4	0	0	up	0	2.978	20	1
17	f	23	turkish	0	0	maro	maro_ris.mp3	1	up	0.5	F4.mp4	R8.mp4	0	right	right	1	1.636	22	R8.mp4	F4.mp4	0	1	up	1	6.811	1	1
17	f	23	turkish	0	0	reman	reman_fal.mp3	0	down	-0.5	F4.mp4	R8.mp4	0	left	right	0	4.704	21	R8.mp4	F4.mp4	0	1	down	1	2.279	5	0
17	f	23	turkish	0	0	reman	reman_ris.mp3	1	up	0.5	F6.mp4	R4.mp4	0	right	right	1	0.87	15	R4.mp4	F6.mp4	0	1	up	1	2.745	7	1
17	f	23	turkish	0	0	shinen	shinen_fal.mp3	0	down	-0.5	R6.mp4	F9.mp4	1	right	right	1	1.919	3	F9.mp4	R6.mp4	0	0	up	0	3.994	3	1
17	f	23	turkish	0	0	shinen	shinen_ris.mp3	1	up	0.5	F2.mp4	R5.mp4	0	right	right	1	1.756	9	R5.mp4	F2.mp4	0	1	down	0	1.262	22	0
17	f	23	turkish	0	0	teya	teya_fal.mp3	0	down	-0.5	R10.mp4	F11.mp4	1	right	right	1	3.439	18	F11.mp4	R10.mp4	0	0	up	0	1.33	13	1
17	f	23	turkish	0	0	teya	teya_ris.mp3	1	up	0.5	R6.mp4	F11.mp4	1	left	right	0	6.036	17	F11.mp4	R6.mp4	0	0	up	1	1.532	16	1
17	f	23	turkish	0	0	tila	tila_fal.mp3	0	down	-0.5	F6.mp4	R5.mp4	0	left	left	1	9.053	7	F6.mp4	R5.mp4	1	0	down	1	7.979	2	0
17	f	23	turkish	0	0	tila	tila_ris.mp3	1	up	0.5	F8.mp4	R12.mp4	0	right	right	1	0.245	8	R12.mp4	F8.mp4	0	1	up	1	1.197	21	1
17	f	23	turkish	0	0	vewa	vewa_fal.mp3	0	down	-0.5	F10.mp4	R2.mp4	0	left	right	0	5.77	19	R2.mp4	F10.mp4	0	1	up	0	6.277	6	1
17	f	23	turkish	0	0	vewa	vewa_ris.mp3	1	up	0.5	F3.mp4	R2.mp4	0	right	right	1	5.486	10	R2.mp4	F3.mp4	0	1	up	1	3.743	18	1
17	f	23	turkish	0	0	wemi	wemi_fal.mp3	0	down	-0.5	R7.mp4	F3.mp4	1	right	right	1	0.07	1	F3.mp4	R7.mp4	0	0	down	1	0.929	11	0
17	f	23	turkish	0	0	wemi	wemi_ris.mp3	1	up	0.5	R10.mp4	F10.mp4	1	left	left	1	5.236	4	R10.mp4	F10.mp4	1	1	up	1	3.6	9	1
17	f	23	turkish	0	0	yilel	yilel_fal.mp3	0	down	-0.5	F1.mp4	R12.mp4	0	left	right	0	5.072	23	R12.mp4	F1.mp4	0	1	up	0	3.044	12	1
17	f	23	turkish	0	0	yilel	yilel_ris.mp3	1	up	0.5	F5.mp4	R1.mp4	0	right	right	1	9.336	11	R1.mp4	F5.mp4	0	1	up	1	3.361	8	1
17	f	23	turkish	0	0	yina	yina_fal.mp3	0	down	-0.5	F8.mp4	R3.mp4	0	left	left	1	0.502	0	F8.mp4	R3.mp4	1	0	down	1	1.617	19	0
17	f	23	turkish	0	0	yina	yina_ris.mp3	1	up	0.5	F1.mp4	R3.mp4	0	right	right	1	0.934	12	R3.mp4	F1.mp4	0	1	up	1	5.568	0	1
17	f	23	turkish	0	0	ylo	ylo_fal.mp3	0	down	-0.5	F2.mp4	R1.mp4	0	left	left	1	0.502	2	F2.mp4	R1.mp4	1	0	down	1	1.562	15	0
17	f	23	turkish	0	0	ylo	ylo_ris.mp3	1	up	0.5	R11.mp4	F9.mp4	1	left	left	1	7.672	6	R11.mp4	F9.mp4	1	1	down	0	0.961	14	0
18	f	21	turkish	0	0	ivam	ivam_fal.mp3	0	down	-0.5	F3.mp4	R6.mp4	0	left	right	0	0.7527	17	R6.mp4	F3.mp4	0	1	down	1	1.9377	20	0
18	f	21	turkish	0	0	ivam	ivam_ris.mp3	1	up	0.5	R4.mp4	F9.mp4	1	left	right	0	0.9027	18	F9.mp4	R4.mp4	0	0	up	1	1.4887	2	1
18	f	21	turkish	0	0	limer	limer_fal.mp3	0	down	-0.5	F6.mp4	R2.mp4	0	left	left	1	0.8046	6	F6.mp4	R2.mp4	1	0	down	1	0.7797	22	0
18	f	21	turkish	0	0	limer	limer_ris.mp3	1	up	0.5	R10.mp4	F3.mp4	1	left	right	0	11.8428	5	F3.mp4	R10.mp4	0	0	down	0	0.9569	3	0
18	f	21	turkish	0	0	maro	maro_fal.mp3	0	down	-0.5	F10.mp4	R1.mp4	0	left	right	0	9e-04	8	R1.mp4	F10.mp4	0	1	down	1	1.1893	1	0
18	f	21	turkish	0	0	maro	maro_ris.mp3	1	up	0.5	F7.mp4	R9.mp4	0	right	left	0	0.5674	22	F7.mp4	R9.mp4	1	0	down	0	1.3393	19	0
18	f	21	turkish	0	0	reman	reman_fal.mp3	0	down	-0.5	R4.mp4	F11.mp4	1	right	left	0	0.8173	9	R4.mp4	F11.mp4	1	1	up	0	1.0065	13	1
18	f	21	turkish	0	0	reman	reman_ris.mp3	1	up	0.5	R11.mp4	F2.mp4	1	left	left	1	1.784	12	R11.mp4	F2.mp4	1	1	down	0	1.8749	17	0
18	f	21	turkish	0	0	shinen	shinen_fal.mp3	0	down	-0.5	R9.mp4	F2.mp4	1	right	left	0	5.3379	14	R9.mp4	F2.mp4	1	1	down	1	1.1731	5	0
18	f	21	turkish	0	0	shinen	shinen_ris.mp3	1	up	0.5	F8.mp4	R5.mp4	0	right	right	1	0.7696	7	R5.mp4	F8.mp4	0	1	down	0	0.8407	15	0
18	f	21	turkish	0	0	teya	teya_fal.mp3	0	down	-0.5	R7.mp4	F1.mp4	1	right	left	0	0.6673	20	R7.mp4	F1.mp4	1	1	down	1	1.3226	4	0
18	f	21	turkish	0	0	teya	teya_ris.mp3	1	up	0.5	R3.mp4	F5.mp4	1	left	right	0	2.0862	15	F5.mp4	R3.mp4	0	0	up	1	1.1236	14	1
18	f	21	turkish	0	0	tila	tila_fal.mp3	0	down	-0.5	F8.mp4	R8.mp4	0	left	left	1	1.6129	4	F8.mp4	R8.mp4	1	0	up	0	1.427	7	1
18	f	21	turkish	0	0	tila	tila_ris.mp3	1	up	0.5	F4.mp4	R6.mp4	0	right	right	1	0.8987	19	R6.mp4	F4.mp4	0	1	up	1	4.3833	21	1
18	f	21	turkish	0	0	vewa	vewa_fal.mp3	0	down	-0.5	R12.mp4	F9.mp4	1	right	left	0	0.818	1	R12.mp4	F9.mp4	1	1	up	0	1.5921	6	1
18	f	21	turkish	0	0	vewa	vewa_ris.mp3	1	up	0.5	R2.mp4	F12.mp4	1	left	left	1	1.4986	21	R2.mp4	F12.mp4	1	1	up	1	0.9936	18	1
18	f	21	turkish	0	0	wemi	wemi_fal.mp3	0	down	-0.5	F4.mp4	R3.mp4	0	left	left	1	0.5241	13	F4.mp4	R3.mp4	1	0	down	1	1.6056	8	0
18	f	21	turkish	0	0	wemi	wemi_ris.mp3	1	up	0.5	F11.mp4	R7.mp4	0	right	left	0	0.3993	11	F11.mp4	R7.mp4	1	0	up	1	1.0757	10	1
18	f	21	turkish	0	0	yilel	yilel_fal.mp3	0	down	-0.5	F5.mp4	R11.mp4	0	left	left	1	1.2694	0	F5.mp4	R11.mp4	1	0	down	1	1.0069	11	0
18	f	21	turkish	0	0	yilel	yilel_ris.mp3	1	up	0.5	F6.mp4	R1.mp4	0	right	left	0	8.1167	10	F6.mp4	R1.mp4	1	0	up	1	1.0616	9	1
18	f	21	turkish	0	0	yina	yina_fal.mp3	0	down	-0.5	F7.mp4	R10.mp4	0	left	right	0	0.4163	23	R10.mp4	F7.mp4	0	1	down	1	1.0751	16	0
18	f	21	turkish	0	0	yina	yina_ris.mp3	1	up	0.5	R12.mp4	F1.mp4	1	left	right	0	0.4651	2	F1.mp4	R12.mp4	0	0	up	1	1.6558	12	1
18	f	21	turkish	0	0	ylo	ylo_fal.mp3	0	down	-0.5	F12.mp4	R5.mp4	0	left	right	0	1.0321	3	R5.mp4	F12.mp4	0	1	up	0	0.9632	23	1
18	f	21	turkish	0	0	ylo	ylo_ris.mp3	1	up	0.5	R8.mp4	F10.mp4	1	left	left	1	0.4722	16	R8.mp4	F10.mp4	1	1	up	1	2.2378	0	1
19	f	25	turkish	0	0	ivam	ivam_fal.mp3	0	down	-0.5	F1.mp4	R8.mp4	0	left	left	1	0.5025	23	F1.mp4	R8.mp4	1	0	down	1	2.3658	11	0
19	f	25	turkish	0	0	ivam	ivam_ris.mp3	1	up	0.5	R6.mp4	F12.mp4	1	left	left	1	0.3682	1	R6.mp4	F12.mp4	1	1	up	1	1.9495	8	1
19	f	25	turkish	0	0	limer	limer_fal.mp3	0	down	-0.5	R12.mp4	F6.mp4	1	right	right	1	0.3527	17	F6.mp4	R12.mp4	0	0	down	1	0.7795	18	0
19	f	25	turkish	0	0	limer	limer_ris.mp3	1	up	0.5	F9.mp4	R9.mp4	0	right	right	1	0.6735	8	R9.mp4	F9.mp4	0	1	down	0	1.2645	5	0
19	f	25	turkish	0	0	maro	maro_fal.mp3	0	down	-0.5	F3.mp4	R10.mp4	0	left	left	1	0.6512	19	F3.mp4	R10.mp4	1	0	down	1	2.0962	19	0
19	f	25	turkish	0	0	maro	maro_ris.mp3	1	up	0.5	F5.mp4	R2.mp4	0	right	right	1	1.4499	0	R2.mp4	F5.mp4	0	1	up	1	1.0137	16	1
19	f	25	turkish	0	0	reman	reman_fal.mp3	0	down	-0.5	F4.mp4	R2.mp4	0	left	right	0	1.2009	22	R2.mp4	F4.mp4	0	1	down	1	0.9859	15	0
19	f	25	turkish	0	0	reman	reman_ris.mp3	1	up	0.5	F7.mp4	R12.mp4	0	right	right	1	0.633	18	R12.mp4	F7.mp4	0	1	up	1	0.9968	4	1
19	f	25	turkish	0	0	shinen	shinen_fal.mp3	0	down	-0.5	F11.mp4	R1.mp4	0	left	right	0	0.3663	21	R1.mp4	F11.mp4	0	1	down	1	1.3138	20	0
19	f	25	turkish	0	0	shinen	shinen_ris.mp3	1	up	0.5	R1.mp4	F6.mp4	1	left	left	1	2.0708	3	R1.mp4	F6.mp4	1	1	up	1	1.0945	7	1
19	f	25	turkish	0	0	teya	teya_fal.mp3	0	down	-0.5	F2.mp4	R6.mp4	0	left	right	0	2.1679	2	R6.mp4	F2.mp4	0	1	down	1	1.1166	6	0
19	f	25	turkish	0	0	teya	teya_ris.mp3	1	up	0.5	F3.mp4	R4.mp4	0	right	left	0	0.2509	7	F3.mp4	R4.mp4	1	0	up	1	1.1156	23	1
19	f	25	turkish	0	0	tila	tila_fal.mp3	0	down	-0.5	F8.mp4	R9.mp4	0	left	right	0	0.0843	12	R9.mp4	F8.mp4	0	1	down	1	2.0138	10	0
19	f	25	turkish	0	0	tila	tila_ris.mp3	1	up	0.5	F1.mp4	R5.mp4	0	right	right	1	0.2048	10	R5.mp4	F1.mp4	0	1	up	1	0.8641	2	1
19	f	25	turkish	0	0	vewa	vewa_fal.mp3	0	down	-0.5	F5.mp4	R7.mp4	0	left	left	1	0.567	20	F5.mp4	R7.mp4	1	0	down	1	1.3669	13	0
19	f	25	turkish	0	0	vewa	vewa_ris.mp3	1	up	0.5	R11.mp4	F11.mp4	1	left	right	0	0.0677	13	F11.mp4	R11.mp4	0	0	up	1	1.2988	12	1
19	f	25	turkish	0	0	wemi	wemi_fal.mp3	0	down	-0.5	R11.mp4	F12.mp4	1	right	right	1	0.5159	11	F12.mp4	R11.mp4	0	0	down	1	1.0826	9	0
19	f	25	turkish	0	0	wemi	wemi_ris.mp3	1	up	0.5	F4.mp4	R8.mp4	0	right	right	1	0.5017	4	R8.mp4	F4.mp4	0	1	up	1	1.0974	0	1
19	f	25	turkish	0	0	yilel	yilel_fal.mp3	0	down	-0.5	F7.mp4	R3.mp4	0	left	right	0	10.8018	15	R3.mp4	F7.mp4	0	1	down	1	1.1499	1	0
19	f	25	turkish	0	0	yilel	yilel_ris.mp3	1	up	0.5	F8.mp4	R3.mp4	0	right	left	0	1.9692	16	F8.mp4	R3.mp4	1	0	up	1	0.8649	14	1
19	f	25	turkish	0	0	yina	yina_fal.mp3	0	down	-0.5	R5.mp4	F10.mp4	1	right	left	0	4.8853	6	R5.mp4	F10.mp4	1	1	down	1	2.3962	21	0
19	f	25	turkish	0	0	yina	yina_ris.mp3	1	up	0.5	F10.mp4	R7.mp4	0	right	left	0	0.1009	14	F10.mp4	R7.mp4	1	0	up	1	0.9473	3	1
19	f	25	turkish	0	0	ylo	ylo_fal.mp3	0	down	-0.5	R4.mp4	F9.mp4	1	right	right	1	0.2692	5	F9.mp4	R4.mp4	0	0	down	1	1.5001	22	0
19	f	25	turkish	0	0	ylo	ylo_ris.mp3	1	up	0.5	R10.mp4	F2.mp4	1	left	right	0	0.2004	9	F2.mp4	R10.mp4	0	0	up	1	0.9463	17	1
20	o	30	turkish	0	0	ivam	ivam_fal.mp3	0	down	-0.5	R3.mp4	F7.mp4	1	right	left	0	1.576	2	R3.mp4	F7.mp4	1	1	down	1	2.186	9	0
20	o	30	turkish	0	0	ivam	ivam_ris.mp3	1	up	0.5	R2.mp4	F2.mp4	1	left	left	1	0.292	17	R2.mp4	F2.mp4	1	1	up	1	1.743	3	1
20	o	30	turkish	0	0	limer	limer_fal.mp3	0	down	-0.5	R7.mp4	F8.mp4	1	right	left	0	1.47	6	R7.mp4	F8.mp4	1	1	down	1	1.079	16	0
20	o	30	turkish	0	0	limer	limer_ris.mp3	1	up	0.5	R7.mp4	F7.mp4	1	left	right	0	0.385	16	F7.mp4	R7.mp4	0	0	down	0	1.779	13	0
20	o	30	turkish	0	0	maro	maro_fal.mp3	0	down	-0.5	R12.mp4	F10.mp4	1	right	left	0	1.166	3	R12.mp4	F10.mp4	1	1	down	1	1.534	2	0
20	o	30	turkish	0	0	maro	maro_ris.mp3	1	up	0.5	R3.mp4	F1.mp4	1	left	right	0	0.37	10	F1.mp4	R3.mp4	0	0	up	1	1.357	20	1
20	o	30	turkish	0	0	reman	reman_fal.mp3	0	down	-0.5	F11.mp4	R6.mp4	0	left	left	1	0.873	14	F11.mp4	R6.mp4	1	0	down	1	1.648	14	0
20	o	30	turkish	0	0	reman	reman_ris.mp3	1	up	0.5	F12.mp4	R12.mp4	0	right	left	0	4.873	15	F12.mp4	R12.mp4	1	0	up	1	1.66	19	1
20	o	30	turkish	0	0	shinen	shinen_fal.mp3	0	down	-0.5	R1.mp4	F2.mp4	1	right	right	1	1.16	12	F2.mp4	R1.mp4	0	0	down	1	1.217	23	0
20	o	30	turkish	0	0	shinen	shinen_ris.mp3	1	up	0.5	R8.mp4	F5.mp4	1	left	left	1	0.307	11	R8.mp4	F5.mp4	1	1	up	1	3.26	18	1
20	o	30	turkish	0	0	teya	teya_fal.mp3	0	down	-0.5	R5.mp4	F9.mp4	1	right	right	1	2.176	9	F9.mp4	R5.mp4	0	0	up	0	2.965	7	1
20	o	30	turkish	0	0	teya	teya_ris.mp3	1	up	0.5	R11.mp4	F9.mp4	1	left	right	0	1.861	21	F9.mp4	R11.mp4	0	0	up	1	1.432	10	1
20	o	30	turkish	0	0	tila	tila_fal.mp3	0	down	-0.5	F1.mp4	R2.mp4	0	left	right	0	0.475	22	R2.mp4	F1.mp4	0	1	down	1	1.783	15	0
20	o	30	turkish	0	0	tila	tila_ris.mp3	1	up	0.5	F10.mp4	R1.mp4	0	right	right	1	0.209	7	R1.mp4	F10.mp4	0	1	up	1	1.558	0	1
20	o	30	turkish	0	0	vewa	vewa_fal.mp3	0	down	-0.5	R4.mp4	F6.mp4	1	right	left	0	2.161	13	R4.mp4	F6.mp4	1	1	down	1	2.695	4	0
20	o	30	turkish	0	0	vewa	vewa_ris.mp3	1	up	0.5	F6.mp4	R9.mp4	0	right	right	1	1.243	5	R9.mp4	F6.mp4	0	1	up	1	1.129	6	1
20	o	30	turkish	0	0	wemi	wemi_fal.mp3	0	down	-0.5	F12.mp4	R11.mp4	0	left	right	0	0.514	18	R11.mp4	F12.mp4	0	1	down	1	1.066	21	0
20	o	30	turkish	0	0	wemi	wemi_ris.mp3	1	up	0.5	R10.mp4	F11.mp4	1	left	left	1	0.555	23	R10.mp4	F11.mp4	1	1	up	1	2.28	8	1
20	o	30	turkish	0	0	yilel	yilel_fal.mp3	0	down	-0.5	F3.mp4	R8.mp4	0	left	right	0	1.546	0	R8.mp4	F3.mp4	0	1	down	1	1.044	22	0
20	o	30	turkish	0	0	yilel	yilel_ris.mp3	1	up	0.5	F8.mp4	R5.mp4	0	right	right	1	0.51	20	R5.mp4	F8.mp4	0	1	down	0	2.874	1	0
20	o	30	turkish	0	0	yina	yina_fal.mp3	0	down	-0.5	R10.mp4	F5.mp4	1	right	left	0	2.099	1	R10.mp4	F5.mp4	1	1	down	1	0.882	11	0
20	o	30	turkish	0	0	yina	yina_ris.mp3	1	up	0.5	F4.mp4	R6.mp4	0	right	left	0	0.705	19	F4.mp4	R6.mp4	1	0	up	1	1.228	17	1
20	o	30	turkish	0	0	ylo	ylo_fal.mp3	0	down	-0.5	R9.mp4	F4.mp4	1	right	right	1	0.282	8	F4.mp4	R9.mp4	0	0	up	0	1.262	12	1
20	o	30	turkish	0	0	ylo	ylo_ris.mp3	1	up	0.5	R4.mp4	F3.mp4	1	left	left	1	1.06	4	R4.mp4	F3.mp4	1	1	down	0	1.398	5	0
21	f	34	Turkish and English	0	0	ivam	ivam_fal.mp3	0	down	-0.5	R9.mp4	F9.mp4	1	right	right	1	1.2092	9	F9.mp4	R9.mp4	0	0	up	0	3.907	0	1
21	f	34	Turkish and English	0	0	ivam	ivam_ris.mp3	1	up	0.5	R7.mp4	F5.mp4	1	left	left	1	0.5186	7	R7.mp4	F5.mp4	1	1	up	1	1.0183	22	1
21	f	34	Turkish and English	0	0	limer	limer_fal.mp3	0	down	-0.5	R12.mp4	F3.mp4	1	right	left	0	1.1971	2	R12.mp4	F3.mp4	1	1	down	1	2.4763	20	0
21	f	34	Turkish and English	0	0	limer	limer_ris.mp3	1	up	0.5	F7.mp4	R2.mp4	0	right	left	0	0.7433	4	F7.mp4	R2.mp4	1	0	up	1	0.9583	11	1
21	f	34	Turkish and English	0	0	maro	maro_fal.mp3	0	down	-0.5	F4.mp4	R8.mp4	0	left	left	1	0.6589	21	F4.mp4	R8.mp4	1	0	down	1	1.187	2	0
21	f	34	Turkish and English	0	0	maro	maro_ris.mp3	1	up	0.5	R3.mp4	F2.mp4	1	left	right	0	0.4625	12	F2.mp4	R3.mp4	0	0	up	1	2.4061	6	1
21	f	34	Turkish and English	0	0	reman	reman_fal.mp3	0	down	-0.5	F10.mp4	R11.mp4	0	left	left	1	0.6259	13	F10.mp4	R11.mp4	1	0	down	1	0.9848	18	0
21	f	34	Turkish and English	0	0	reman	reman_ris.mp3	1	up	0.5	R6.mp4	F1.mp4	1	left	right	0	1.2107	18	F1.mp4	R6.mp4	0	0	up	1	1.7214	5	1
21	f	34	Turkish and English	0	0	shinen	shinen_fal.mp3	0	down	-0.5	R7.mp4	F12.mp4	1	right	right	1	0.6523	8	F12.mp4	R7.mp4	0	0	down	1	1.1433	19	0
21	f	34	Turkish and English	0	0	shinen	shinen_ris.mp3	1	up	0.5	R4.mp4	F10.mp4	1	left	left	1	0.6883	16	R4.mp4	F10.mp4	1	1	up	1	1.2746	8	1
21	f	34	Turkish and English	0	0	teya	teya_fal.mp3	0	down	-0.5	F1.mp4	R2.mp4	0	left	left	1	1.1111	23	F1.mp4	R2.mp4	1	0	up	0	3.0522	4	1
21	f	34	Turkish and English	0	0	teya	teya_ris.mp3	1	up	0.5	R12.mp4	F3.mp4	1	left	right	0	0.535	15	F3.mp4	R12.mp4	0	0	up	1	1.0466	14	1
21	f	34	Turkish and English	0	0	tila	tila_fal.mp3	0	down	-0.5	F2.mp4	R3.mp4	0	left	right	0	0.9515	11	R3.mp4	F2.mp4	0	1	down	1	0.905	9	0
21	f	34	Turkish and English	0	0	tila	tila_ris.mp3	1	up	0.5	R1.mp4	F9.mp4	1	left	right	0	0.8894	17	F9.mp4	R1.mp4	0	0	up	1	1.0643	15	1
21	f	34	Turkish and English	0	0	vewa	vewa_fal.mp3	0	down	-0.5	R6.mp4	F6.mp4	1	right	left	0	0.7414	19	R6.mp4	F6.mp4	1	1	down	1	1.4895	16	0
21	f	34	Turkish and English	0	0	vewa	vewa_ris.mp3	1	up	0.5	R11.mp4	F12.mp4	1	left	right	0	1.5896	14	F12.mp4	R11.mp4	0	0	up	1	1.2968	13	1
21	f	34	Turkish and English	0	0	wemi	wemi_fal.mp3	0	down	-0.5	R10.mp4	F7.mp4	1	right	left	0	4.5333	5	R10.mp4	F7.mp4	1	1	down	1	0.9564	17	0
21	f	34	Turkish and English	0	0	wemi	wemi_ris.mp3	1	up	0.5	R10.mp4	F8.mp4	1	left	left	1	1.2448	10	R10.mp4	F8.mp4	1	1	up	1	2.9974	1	1
21	f	34	Turkish and English	0	0	yilel	yilel_fal.mp3	0	down	-0.5	R1.mp4	F5.mp4	1	right	right	1	0.7449	20	F5.mp4	R1.mp4	0	0	down	1	2.7489	3	0
21	f	34	Turkish and English	0	0	yilel	yilel_ris.mp3	1	up	0.5	R9.mp4	F11.mp4	1	left	right	0	1.0834	0	F11.mp4	R9.mp4	0	0	up	1	1.3131	7	1
21	f	34	Turkish and English	0	0	yina	yina_fal.mp3	0	down	-0.5	F11.mp4	R4.mp4	0	left	right	0	0.501	3	R4.mp4	F11.mp4	0	1	down	1	1.3372	21	0
21	f	34	Turkish and English	0	0	yina	yina_ris.mp3	1	up	0.5	F6.mp4	R5.mp4	0	right	left	0	1.1016	6	F6.mp4	R5.mp4	1	0	up	1	1.1463	12	1
21	f	34	Turkish and English	0	0	ylo	ylo_fal.mp3	0	down	-0.5	R5.mp4	F8.mp4	1	right	left	0	0.8424	22	R5.mp4	F8.mp4	1	1	down	1	1.1853	10	0
21	f	34	Turkish and English	0	0	ylo	ylo_ris.mp3	1	up	0.5	R8.mp4	F4.mp4	1	left	left	1	0.8697	1	R8.mp4	F4.mp4	1	1	up	1	1.1284	23	1
22	m	29	turkish	0	0	ivam	ivam_fal.mp3	0	down	-0.5	R11.mp4	F6.mp4	1	right	right	1	0.1056	2	F6.mp4	R11.mp4	0	0	up	0	1.6583	9	1
22	m	29	turkish	0	0	ivam	ivam_ris.mp3	1	up	0.5	R2.mp4	F7.mp4	1	left	left	1	0.1706	1	R2.mp4	F7.mp4	1	1	up	1	1.534	4	1
22	m	29	turkish	0	0	limer	limer_fal.mp3	0	down	-0.5	R2.mp4	F10.mp4	1	right	right	1	0.2968	12	F10.mp4	R2.mp4	0	0	down	1	1.0667	22	0
22	m	29	turkish	0	0	limer	limer_ris.mp3	1	up	0.5	F5.mp4	R12.mp4	0	right	right	1	0.0501	21	R12.mp4	F5.mp4	0	1	up	1	0.9852	23	1
22	m	29	turkish	0	0	maro	maro_fal.mp3	0	down	-0.5	F1.mp4	R4.mp4	0	left	right	0	0.1948	15	R4.mp4	F1.mp4	0	1	down	1	1.121	12	0
22	m	29	turkish	0	0	maro	maro_ris.mp3	1	up	0.5	R1.mp4	F3.mp4	1	left	right	0	0.1174	20	F3.mp4	R1.mp4	0	0	up	1	1.501	11	1
22	m	29	turkish	0	0	reman	reman_fal.mp3	0	down	-0.5	R8.mp4	F9.mp4	1	right	left	0	0.0192	3	R8.mp4	F9.mp4	1	1	up	0	1.3404	13	1
22	m	29	turkish	0	0	reman	reman_ris.mp3	1	up	0.5	F2.mp4	R11.mp4	0	right	left	0	0.6857	4	F2.mp4	R11.mp4	1	0	up	1	1.3853	5	1
22	m	29	turkish	0	0	shinen	shinen_fal.mp3	0	down	-0.5	F3.mp4	R7.mp4	0	left	right	0	0.1656	0	R7.mp4	F3.mp4	0	1	down	1	1.3058	2	0
22	m	29	turkish	0	0	shinen	shinen_ris.mp3	1	up	0.5	F4.mp4	R10.mp4	0	right	left	0	0.2364	23	F4.mp4	R10.mp4	1	0	up	1	6.9314	0	1
22	m	29	turkish	0	0	teya	teya_fal.mp3	0	down	-0.5	R12.mp4	F4.mp4	1	right	right	1	0.1507	5	F4.mp4	R12.mp4	0	0	up	0	2.5528	1	1
22	m	29	turkish	0	0	teya	teya_ris.mp3	1	up	0.5	F1.mp4	R7.mp4	0	right	right	1	0.1122	7	R7.mp4	F1.mp4	0	1	up	1	1.2129	10	1
22	m	29	turkish	0	0	tila	tila_fal.mp3	0	down	-0.5	F5.mp4	R3.mp4	0	left	right	0	0.1172	14	R3.mp4	F5.mp4	0	1	down	1	1.2746	17	0
22	m	29	turkish	0	0	tila	tila_ris.mp3	1	up	0.5	R4.mp4	F11.mp4	1	left	left	1	0.1588	19	R4.mp4	F11.mp4	1	1	up	1	1.4679	8	1
22	m	29	turkish	0	0	vewa	vewa_fal.mp3	0	down	-0.5	F7.mp4	R6.mp4	0	left	left	1	0.151	17	F7.mp4	R6.mp4	1	0	up	0	1.646	21	1
22	m	29	turkish	0	0	vewa	vewa_ris.mp3	1	up	0.5	F6.mp4	R8.mp4	0	right	left	0	0.0896	11	F6.mp4	R8.mp4	1	0	up	1	1.2405	7	1
22	m	29	turkish	0	0	wemi	wemi_fal.mp3	0	down	-0.5	R9.mp4	F11.mp4	1	right	left	0	0.2519	13	R9.mp4	F11.mp4	1	1	down	1	1.0238	20	0
22	m	29	turkish	0	0	wemi	wemi_ris.mp3	1	up	0.5	F9.mp4	R3.mp4	0	right	left	0	0.1181	6	F9.mp4	R3.mp4	1	0	up	1	1.7062	19	1
22	m	29	turkish	0	0	yilel	yilel_fal.mp3	0	down	-0.5	R10.mp4	F2.mp4	1	right	left	0	0.1189	16	R10.mp4	F2.mp4	1	1	up	0	1.4079	18	1
22	m	29	turkish	0	0	yilel	yilel_ris.mp3	1	up	0.5	F8.mp4	R5.mp4	0	right	left	0	0.1432	8	F8.mp4	R5.mp4	1	0	up	1	1.6022	15	1
22	m	29	turkish	0	0	yina	yina_fal.mp3	0	down	-0.5	R5.mp4	F8.mp4	1	right	right	1	6.568	18	F8.mp4	R5.mp4	0	0	down	1	1.2161	16	0
22	m	29	turkish	0	0	yina	yina_ris.mp3	1	up	0.5	F12.mp4	R9.mp4	0	right	right	1	6.4027	9	R9.mp4	F12.mp4	0	1	up	1	1.5019	14	1
22	m	29	turkish	0	0	ylo	ylo_fal.mp3	0	down	-0.5	F12.mp4	R1.mp4	0	left	left	1	0.1843	10	F12.mp4	R1.mp4	1	0	up	0	2.0739	3	1
22	m	29	turkish	0	0	ylo	ylo_ris.mp3	1	up	0.5	R6.mp4	F10.mp4	1	left	left	1	0.1506	22	R6.mp4	F10.mp4	1	1	down	0	1.4809	6	0
23	m	26	Turkish	0	0	ivam	ivam_fal.mp3	0	down	-0.5	F6.mp4	R5.mp4	0	left	right	0	0.5087	0	R5.mp4	F6.mp4	0	1	up	0	0.7615	13	1
23	m	26	Turkish	0	0	ivam	ivam_ris.mp3	1	up	0.5	F4.mp4	R9.mp4	0	right	left	0	0.6011	22	F4.mp4	R9.mp4	1	0	up	1	1.0561	14	1
23	m	26	Turkish	0	0	limer	limer_fal.mp3	0	down	-0.5	R11.mp4	F11.mp4	1	right	right	1	12.1366	23	F11.mp4	R11.mp4	0	0	down	1	2.3737	9	0
23	m	26	Turkish	0	0	limer	limer_ris.mp3	1	up	0.5	R3.mp4	F2.mp4	1	left	right	0	7.7925	20	F2.mp4	R3.mp4	0	0	up	1	4.764	0	1
23	m	26	Turkish	0	0	maro	maro_fal.mp3	0	down	-0.5	F10.mp4	R7.mp4	0	left	left	1	0.6503	1	F10.mp4	R7.mp4	1	0	up	0	1.2633	15	1
23	m	26	Turkish	0	0	maro	maro_ris.mp3	1	up	0.5	F6.mp4	R10.mp4	0	right	left	0	0.3963	3	F6.mp4	R10.mp4	1	0	up	1	2.1198	10	1
23	m	26	Turkish	0	0	reman	reman_fal.mp3	0	down	-0.5	R9.mp4	F7.mp4	1	right	right	1	5.506	14	F7.mp4	R9.mp4	0	0	down	1	2.0067	3	0
23	m	26	Turkish	0	0	reman	reman_ris.mp3	1	up	0.5	F9.mp4	R2.mp4	0	right	left	0	0.5134	5	F9.mp4	R2.mp4	1	0	down	0	2.8702	7	0
23	m	26	Turkish	0	0	shinen	shinen_fal.mp3	0	down	-0.5	F12.mp4	R4.mp4	0	left	right	0	0.3523	12	R4.mp4	F12.mp4	0	1	up	0	1.3748	23	1
23	m	26	Turkish	0	0	shinen	shinen_ris.mp3	1	up	0.5	R8.mp4	F7.mp4	1	left	left	1	0.0246	15	R8.mp4	F7.mp4	1	1	down	0	1.7723	16	0
23	m	26	Turkish	0	0	teya	teya_fal.mp3	0	down	-0.5	F1.mp4	R2.mp4	0	left	right	0	36.2534	6	R2.mp4	F1.mp4	0	1	up	0	1.5091	19	1
23	m	26	Turkish	0	0	teya	teya_ris.mp3	1	up	0.5	R6.mp4	F8.mp4	1	left	left	1	0.7302	8	R6.mp4	F8.mp4	1	1	up	1	1.3411	17	1
23	m	26	Turkish	0	0	tila	tila_fal.mp3	0	down	-0.5	R12.mp4	F2.mp4	1	right	right	1	3.7763	10	F2.mp4	R12.mp4	0	0	down	1	1.6585	20	0
23	m	26	Turkish	0	0	tila	tila_ris.mp3	1	up	0.5	R1.mp4	F3.mp4	1	left	left	1	0.2258	17	R1.mp4	F3.mp4	1	1	up	1	0.9853	18	1
23	m	26	Turkish	0	0	vewa	vewa_fal.mp3	0	down	-0.5	R6.mp4	F5.mp4	1	right	right	1	0.2072	2	F5.mp4	R6.mp4	0	0	up	0	1.102	21	1
23	m	26	Turkish	0	0	vewa	vewa_ris.mp3	1	up	0.5	R5.mp4	F1.mp4	1	left	right	0	0.3976	9	F1.mp4	R5.mp4	0	0	up	1	3.1565	11	1
23	m	26	Turkish	0	0	wemi	wemi_fal.mp3	0	down	-0.5	R10.mp4	F3.mp4	1	right	right	1	0.375	11	F3.mp4	R10.mp4	0	0	up	0	1.1193	12	1
23	m	26	Turkish	0	0	wemi	wemi_ris.mp3	1	up	0.5	R12.mp4	F12.mp4	1	left	left	1	0.9649	4	R12.mp4	F12.mp4	1	1	up	1	1.3089	22	1
23	m	26	Turkish	0	0	yilel	yilel_fal.mp3	0	down	-0.5	R3.mp4	F9.mp4	1	right	left	0	9e-04	19	R3.mp4	F9.mp4	1	1	up	0	0.9645	8	1
23	m	26	Turkish	0	0	yilel	yilel_ris.mp3	1	up	0.5	R11.mp4	F5.mp4	1	left	left	1	0.0475	18	R11.mp4	F5.mp4	1	1	up	1	1.0462	1	1
23	m	26	Turkish	0	0	yina	yina_fal.mp3	0	down	-0.5	F8.mp4	R8.mp4	0	left	left	1	0.5726	13	F8.mp4	R8.mp4	1	0	down	1	1.2639	2	0
23	m	26	Turkish	0	0	yina	yina_ris.mp3	1	up	0.5	R4.mp4	F11.mp4	1	left	left	1	0.6365	7	R4.mp4	F11.mp4	1	1	up	1	2.8548	5	1
23	m	26	Turkish	0	0	ylo	ylo_fal.mp3	0	down	-0.5	F4.mp4	R1.mp4	0	left	left	1	0.1509	21	F4.mp4	R1.mp4	1	0	down	1	1.9041	4	0
23	m	26	Turkish	0	0	ylo	ylo_ris.mp3	1	up	0.5	R7.mp4	F10.mp4	1	left	left	1	0.3962	16	R7.mp4	F10.mp4	1	1	down	0	1.6908	6	0
24	m	34	turkish	0	0	ivam	ivam_fal.mp3	0	down	-0.5	F12.mp4	R4.mp4	0	left	left	1	1.5169	19	F12.mp4	R4.mp4	1	0	down	1	2.0509	18	0
24	m	34	turkish	0	0	ivam	ivam_ris.mp3	1	up	0.5	F4.mp4	R4.mp4	0	right	right	1	0.1481	5	R4.mp4	F4.mp4	0	1	up	1	1.0365	4	1
24	m	34	turkish	0	0	limer	limer_fal.mp3	0	down	-0.5	R1.mp4	F3.mp4	1	right	right	1	0.0206	12	F3.mp4	R1.mp4	0	0	down	1	1.1714	3	0
24	m	34	turkish	0	0	limer	limer_ris.mp3	1	up	0.5	R1.mp4	F6.mp4	1	left	right	0	20.76	23	F6.mp4	R1.mp4	0	0	down	0	4.9116	1	0
24	m	34	turkish	0	0	maro	maro_fal.mp3	0	down	-0.5	R8.mp4	F1.mp4	1	right	right	1	0.0799	18	F1.mp4	R8.mp4	0	0	down	1	0.9381	6	0
24	m	34	turkish	0	0	maro	maro_ris.mp3	1	up	0.5	F12.mp4	R5.mp4	0	right	left	0	15.2385	21	F12.mp4	R5.mp4	1	0	down	0	1.0579	7	0
24	m	34	turkish	0	0	reman	reman_fal.mp3	0	down	-0.5	F4.mp4	R7.mp4	0	left	right	0	0.1727	9	R7.mp4	F4.mp4	0	1	down	1	1.0394	12	0
24	m	34	turkish	0	0	reman	reman_ris.mp3	1	up	0.5	F7.mp4	R8.mp4	0	right	left	0	0.0219	14	F7.mp4	R8.mp4	1	0	up	1	1.0685	5	1
24	m	34	turkish	0	0	shinen	shinen_fal.mp3	0	down	-0.5	R6.mp4	F11.mp4	1	right	right	1	23.8295	11	F11.mp4	R6.mp4	0	0	down	1	1.0825	21	0
24	m	34	turkish	0	0	shinen	shinen_ris.mp3	1	up	0.5	F8.mp4	R3.mp4	0	right	right	1	0.0102	6	R3.mp4	F8.mp4	0	1	up	1	1.1365	16	1
24	m	34	turkish	0	0	teya	teya_fal.mp3	0	down	-0.5	R11.mp4	F8.mp4	1	right	right	1	44.0066	16	F8.mp4	R11.mp4	0	0	up	0	1.4744	23	1
24	m	34	turkish	0	0	teya	teya_ris.mp3	1	up	0.5	R6.mp4	F1.mp4	1	left	left	1	21.1722	22	R6.mp4	F1.mp4	1	1	up	1	1.0019	11	1
24	m	34	turkish	0	0	tila	tila_fal.mp3	0	down	-0.5	R12.mp4	F6.mp4	1	right	right	1	0.1196	17	F6.mp4	R12.mp4	0	0	down	1	1.154	20	0
24	m	34	turkish	0	0	tila	tila_ris.mp3	1	up	0.5	F9.mp4	R9.mp4	0	right	left	0	15.1204	4	F9.mp4	R9.mp4	1	0	up	1	1.3466	2	1
24	m	34	turkish	0	0	vewa	vewa_fal.mp3	0	down	-0.5	F7.mp4	R3.mp4	0	left	right	0	31.6675	13	R3.mp4	F7.mp4	0	1	down	1	0.8327	17	0
24	m	34	turkish	0	0	vewa	vewa_ris.mp3	1	up	0.5	F5.mp4	R2.mp4	0	right	right	1	0.7498	0	R2.mp4	F5.mp4	0	1	up	1	0.793	22	1
24	m	34	turkish	0	0	wemi	wemi_fal.mp3	0	down	-0.5	F10.mp4	R9.mp4	0	left	right	0	12.6383	3	R9.mp4	F10.mp4	0	1	down	1	1.1293	8	0
24	m	34	turkish	0	0	wemi	wemi_ris.mp3	1	up	0.5	F10.mp4	R12.mp4	0	right	left	0	0.2703	1	F10.mp4	R12.mp4	1	0	down	0	1.114	9	0
24	m	34	turkish	0	0	yilel	yilel_fal.mp3	0	down	-0.5	R10.mp4	F5.mp4	1	right	left	0	0.0547	10	R10.mp4	F5.mp4	1	1	down	1	1.1642	14	0
24	m	34	turkish	0	0	yilel	yilel_ris.mp3	1	up	0.5	R7.mp4	F11.mp4	1	left	right	0	0.1777	7	F11.mp4	R7.mp4	0	0	up	1	1.2501	19	1
24	m	34	turkish	0	0	yina	yina_fal.mp3	0	down	-0.5	F2.mp4	R2.mp4	0	left	right	0	0.1188	8	R2.mp4	F2.mp4	0	1	down	1	1.5036	10	0
24	m	34	turkish	0	0	yina	yina_ris.mp3	1	up	0.5	R10.mp4	F3.mp4	1	left	right	0	29.8916	15	F3.mp4	R10.mp4	0	0	up	1	1.0656	13	1
24	m	34	turkish	0	0	ylo	ylo_fal.mp3	0	down	-0.5	F9.mp4	R5.mp4	0	left	left	1	0.0096	20	F9.mp4	R5.mp4	1	0	down	1	7.9767	0	0
24	m	34	turkish	0	0	ylo	ylo_ris.mp3	1	up	0.5	F2.mp4	R11.mp4	0	right	left	0	0.7562	2	F2.mp4	R11.mp4	1	0	down	0	3.565	15	0
25	f	24	turkish	0	1	ivam	ivam_fal.mp3	0	down	-0.5	R7.mp4	F10.mp4	1	right	right	1	0.5268	4	F10.mp4	R7.mp4	0	0	down	1	1.1074	17	0
25	f	24	turkish	0	1	ivam	ivam_ris.mp3	1	up	0.5	F7.mp4	R1.mp4	0	right	right	1	0.6118	11	R1.mp4	F7.mp4	0	1	up	1	0.999	9	1
25	f	24	turkish	0	1	limer	limer_fal.mp3	0	down	-0.5	R9.mp4	F8.mp4	1	right	left	0	0.32	13	R9.mp4	F8.mp4	1	1	down	1	1.2425	22	0
25	f	24	turkish	0	1	limer	limer_ris.mp3	1	up	0.5	R11.mp4	F10.mp4	1	left	left	1	0.2729	15	R11.mp4	F10.mp4	1	1	up	1	1.0061	10	1
25	f	24	turkish	0	1	maro	maro_fal.mp3	0	down	-0.5	R4.mp4	F6.mp4	1	right	left	0	0.5184	9	R4.mp4	F6.mp4	1	1	down	1	0.9065	3	0
25	f	24	turkish	0	1	maro	maro_ris.mp3	1	up	0.5	F5.mp4	R4.mp4	0	right	left	0	0.6867	1	F5.mp4	R4.mp4	1	0	up	1	1.0293	21	1
25	f	24	turkish	0	1	reman	reman_fal.mp3	0	down	-0.5	R12.mp4	F2.mp4	1	right	left	0	0.6196	6	R12.mp4	F2.mp4	1	1	down	1	0.8876	18	0
25	f	24	turkish	0	1	reman	reman_ris.mp3	1	up	0.5	F4.mp4	R3.mp4	0	right	right	1	0.275	20	R3.mp4	F4.mp4	0	1	up	1	0.9284	1	1
25	f	24	turkish	0	1	shinen	shinen_fal.mp3	0	down	-0.5	R3.mp4	F5.mp4	1	right	right	1	0.2955	19	F5.mp4	R3.mp4	0	0	down	1	1.0066	13	0
25	f	24	turkish	0	1	shinen	shinen_ris.mp3	1	up	0.5	F12.mp4	R5.mp4	0	right	right	1	0.6741	5	R5.mp4	F12.mp4	0	1	up	1	1.2218	15	1
25	f	24	turkish	0	1	teya	teya_fal.mp3	0	down	-0.5	F4.mp4	R11.mp4	0	left	left	1	1.2075	3	F4.mp4	R11.mp4	1	0	down	1	0.9048	6	0
25	f	24	turkish	0	1	teya	teya_ris.mp3	1	up	0.5	R7.mp4	F8.mp4	1	left	right	0	5.6523	7	F8.mp4	R7.mp4	0	0	up	1	0.889	12	1
25	f	24	turkish	0	1	tila	tila_fal.mp3	0	down	-0.5	F7.mp4	R10.mp4	0	left	left	1	1.6101	8	F7.mp4	R10.mp4	1	0	down	1	1.1787	16	0
25	f	24	turkish	0	1	tila	tila_ris.mp3	1	up	0.5	F2.mp4	R6.mp4	0	right	right	1	0.5549	23	R6.mp4	F2.mp4	0	1	up	1	0.8627	2	1
25	f	24	turkish	0	1	vewa	vewa_fal.mp3	0	down	-0.5	R6.mp4	F11.mp4	1	right	right	1	0.7115	2	F11.mp4	R6.mp4	0	0	down	1	1.4967	19	0
25	f	24	turkish	0	1	vewa	vewa_ris.mp3	1	up	0.5	R12.mp4	F3.mp4	1	left	left	1	0.5633	22	R12.mp4	F3.mp4	1	1	up	1	0.8581	4	1
25	f	24	turkish	0	1	wemi	wemi_fal.mp3	0	down	-0.5	F12.mp4	R2.mp4	0	left	left	1	0.7019	0	F12.mp4	R2.mp4	1	0	down	1	0.8943	5	0
25	f	24	turkish	0	1	wemi	wemi_ris.mp3	1	up	0.5	F6.mp4	R8.mp4	0	right	left	0	0.4611	14	F6.mp4	R8.mp4	1	0	up	1	1.0984	0	1
25	f	24	turkish	0	1	yilel	yilel_fal.mp3	0	down	-0.5	R8.mp4	F3.mp4	1	right	right	1	0.3639	17	F3.mp4	R8.mp4	0	0	down	1	0.9393	8	0
25	f	24	turkish	0	1	yilel	yilel_ris.mp3	1	up	0.5	F11.mp4	R9.mp4	0	right	left	0	0.7538	16	F11.mp4	R9.mp4	1	0	up	1	0.888	7	1
25	f	24	turkish	0	1	yina	yina_fal.mp3	0	down	-0.5	F9.mp4	R1.mp4	0	left	left	1	0.5609	10	F9.mp4	R1.mp4	1	0	down	1	0.9629	23	0
25	f	24	turkish	0	1	yina	yina_ris.mp3	1	up	0.5	F9.mp4	R2.mp4	0	right	right	1	0.5568	18	R2.mp4	F9.mp4	0	1	up	1	1.0046	20	1
25	f	24	turkish	0	1	ylo	ylo_fal.mp3	0	down	-0.5	F1.mp4	R5.mp4	0	left	left	1	0.5405	21	F1.mp4	R5.mp4	1	0	down	1	1.7107	14	0
25	f	24	turkish	0	1	ylo	ylo_ris.mp3	1	up	0.5	R10.mp4	F1.mp4	1	left	left	1	0.441	12	R10.mp4	F1.mp4	1	1	up	1	0.9394	11	1
26	m	27	Turkish	0	0	ivam	ivam_fal.mp3	0	down	-0.5	F8.mp4	R4.mp4	0	left	right	0	1.6932	8	R4.mp4	F8.mp4	0	1	up	0	3.1533	6	1
26	m	27	Turkish	0	0	ivam	ivam_ris.mp3	1	up	0.5	R11.mp4	F1.mp4	1	left	right	0	0.7969	7	F1.mp4	R11.mp4	0	0	down	0	3.8546	4	0
26	m	27	Turkish	0	0	limer	limer_fal.mp3	0	down	-0.5	R5.mp4	F7.mp4	1	right	left	0	0.5857	14	R5.mp4	F7.mp4	1	1	up	0	3.2303	12	1
26	m	27	Turkish	0	0	limer	limer_ris.mp3	1	up	0.5	R9.mp4	F5.mp4	1	left	left	1	0.4749	19	R9.mp4	F5.mp4	1	1	down	0	6.0951	11	0
26	m	27	Turkish	0	0	maro	maro_fal.mp3	0	down	-0.5	F9.mp4	R10.mp4	0	left	right	0	0.4793	4	R10.mp4	F9.mp4	0	1	down	1	2.0254	18	0
26	m	27	Turkish	0	0	maro	maro_ris.mp3	1	up	0.5	R8.mp4	F10.mp4	1	left	right	0	1.2538	20	F10.mp4	R8.mp4	0	0	down	0	6.7835	1	0
26	m	27	Turkish	0	0	reman	reman_fal.mp3	0	down	-0.5	F11.mp4	R8.mp4	0	left	left	1	0.6588	1	F11.mp4	R8.mp4	1	0	up	0	2.2537	10	1
26	m	27	Turkish	0	0	reman	reman_ris.mp3	1	up	0.5	R6.mp4	F4.mp4	1	left	left	1	0.778	5	R6.mp4	F4.mp4	1	1	up	1	6.9319	21	1
26	m	27	Turkish	0	0	shinen	shinen_fal.mp3	0	down	-0.5	R6.mp4	F6.mp4	1	right	right	1	0.7351	10	F6.mp4	R6.mp4	0	0	down	1	3.6101	17	0
26	m	27	Turkish	0	0	shinen	shinen_ris.mp3	1	up	0.5	R5.mp4	F2.mp4	1	left	right	0	0.3571	23	F2.mp4	R5.mp4	0	0	down	0	3.5723	23	0
26	m	27	Turkish	0	0	teya	teya_fal.mp3	0	down	-0.5	R7.mp4	F2.mp4	1	right	right	1	0.8922	12	F2.mp4	R7.mp4	0	0	up	0	8.0093	16	1
26	m	27	Turkish	0	0	teya	teya_ris.mp3	1	up	0.5	R4.mp4	F12.mp4	1	left	left	1	0.7559	3	R4.mp4	F12.mp4	1	1	up	1	1.5821	20	1
26	m	27	Turkish	0	0	tila	tila_fal.mp3	0	down	-0.5	R2.mp4	F5.mp4	1	right	left	0	0.6234	9	R2.mp4	F5.mp4	1	1	down	1	6.4978	0	0
26	m	27	Turkish	0	0	tila	tila_ris.mp3	1	up	0.5	R12.mp4	F3.mp4	1	left	left	1	0.2676	22	R12.mp4	F3.mp4	1	1	up	1	1.913	8	1
26	m	27	Turkish	0	0	vewa	vewa_fal.mp3	0	down	-0.5	R9.mp4	F3.mp4	1	right	left	0	0.7545	13	R9.mp4	F3.mp4	1	1	down	1	2.7671	14	0
26	m	27	Turkish	0	0	vewa	vewa_ris.mp3	1	up	0.5	F7.mp4	R7.mp4	0	right	left	0	0.6286	0	F7.mp4	R7.mp4	1	0	down	0	3.2863	9	0
26	m	27	Turkish	0	0	wemi	wemi_fal.mp3	0	down	-0.5	F12.mp4	R1.mp4	0	left	left	1	6.1131	2	F12.mp4	R1.mp4	1	0	down	1	3.8188	19	0
26	m	27	Turkish	0	0	wemi	wemi_ris.mp3	1	up	0.5	R3.mp4	F8.mp4	1	left	right	0	0.5805	11	F8.mp4	R3.mp4	0	0	down	0	5.6932	5	0
26	m	27	Turkish	0	0	yilel	yilel_fal.mp3	0	down	-0.5	F4.mp4	R12.mp4	0	left	left	1	1.5644	18	F4.mp4	R12.mp4	1	0	down	1	7.9335	15	0
26	m	27	Turkish	0	0	yilel	yilel_ris.mp3	1	up	0.5	F9.mp4	R1.mp4	0	right	right	1	0.3682	6	R1.mp4	F9.mp4	0	1	down	0	6.0466	22	0
26	m	27	Turkish	0	0	yina	yina_fal.mp3	0	down	-0.5	F1.mp4	R11.mp4	0	left	left	1	0.8106	17	F1.mp4	R11.mp4	1	0	down	1	1.9854	7	0
26	m	27	Turkish	0	0	yina	yina_ris.mp3	1	up	0.5	R2.mp4	F11.mp4	1	left	right	0	0.7889	21	F11.mp4	R2.mp4	0	0	up	1	3.2051	13	1
26	m	27	Turkish	0	0	ylo	ylo_fal.mp3	0	down	-0.5	R3.mp4	F10.mp4	1	right	left	0	0.671	16	R3.mp4	F10.mp4	1	1	up	0	9.619	3	1
26	m	27	Turkish	0	0	ylo	ylo_ris.mp3	1	up	0.5	F6.mp4	R10.mp4	0	right	left	0	1.1969	15	F6.mp4	R10.mp4	1	0	down	0	3.2752	2	0
27	f	32	Turkish	0	0	ivam	ivam_fal.mp3	0	down	-0.5	R12.mp4	F7.mp4	1	right	right	1	11.1398	10	F7.mp4	R12.mp4	0	0	up	0	3.608	11	1
27	f	32	Turkish	0	0	ivam	ivam_ris.mp3	1	up	0.5	F4.mp4	R10.mp4	0	right	right	1	17.5399	12	R10.mp4	F4.mp4	0	1	up	1	1.5091	14	1
27	f	32	Turkish	0	0	limer	limer_fal.mp3	0	down	-0.5	F4.mp4	R9.mp4	0	left	right	0	5.1813	18	R9.mp4	F4.mp4	0	1	up	0	1.643	13	1
27	f	32	Turkish	0	0	limer	limer_ris.mp3	1	up	0.5	F1.mp4	R5.mp4	0	right	right	1	18.7907	16	R5.mp4	F1.mp4	0	1	up	1	2.0498	19	1
27	f	32	Turkish	0	0	maro	maro_fal.mp3	0	down	-0.5	F5.mp4	R3.mp4	0	left	right	0	0.8749	6	R3.mp4	F5.mp4	0	1	down	1	6.4528	4	0
27	f	32	Turkish	0	0	maro	maro_ris.mp3	1	up	0.5	F9.mp4	R7.mp4	0	right	right	1	0.6455	7	R7.mp4	F9.mp4	0	1	down	0	2.9246	18	0
27	f	32	Turkish	0	0	reman	reman_fal.mp3	0	down	-0.5	F12.mp4	R11.mp4	0	left	right	0	0.8739	19	R11.mp4	F12.mp4	0	1	down	1	2.3222	5	0
27	f	32	Turkish	0	0	reman	reman_ris.mp3	1	up	0.5	F12.mp4	R1.mp4	0	right	left	0	0.2027	8	F12.mp4	R1.mp4	1	0	down	0	1.4969	12	0
27	f	32	Turkish	0	0	shinen	shinen_fal.mp3	0	down	-0.5	R6.mp4	F2.mp4	1	right	right	1	0.609	2	F2.mp4	R6.mp4	0	0	up	0	3.3253	9	1
27	f	32	Turkish	0	0	shinen	shinen_ris.mp3	1	up	0.5	R8.mp4	F11.mp4	1	left	left	1	1.4632	11	R8.mp4	F11.mp4	1	1	down	0	2.3715	15	0
27	f	32	Turkish	0	0	teya	teya_fal.mp3	0	down	-0.5	F10.mp4	R10.mp4	0	left	right	0	1.7023	3	R10.mp4	F10.mp4	0	1	up	0	1.3761	0	1
27	f	32	Turkish	0	0	teya	teya_ris.mp3	1	up	0.5	F2.mp4	R4.mp4	0	right	right	1	5.4655	17	R4.mp4	F2.mp4	0	1	up	1	1.929	3	1
27	f	32	Turkish	0	0	tila	tila_fal.mp3	0	down	-0.5	F8.mp4	R7.mp4	0	left	right	0	7.5539	14	R7.mp4	F8.mp4	0	1	up	0	1.692	23	1
27	f	32	Turkish	0	0	tila	tila_ris.mp3	1	up	0.5	R9.mp4	F6.mp4	1	left	right	0	3.2106	0	F6.mp4	R9.mp4	0	0	up	1	1.4187	7	1
27	f	32	Turkish	0	0	vewa	vewa_fal.mp3	0	down	-0.5	R8.mp4	F3.mp4	1	right	right	1	1.5362	5	F3.mp4	R8.mp4	0	0	down	1	1.5168	8	0
27	f	32	Turkish	0	0	vewa	vewa_ris.mp3	1	up	0.5	F7.mp4	R6.mp4	0	right	left	0	1.881	20	F7.mp4	R6.mp4	1	0	down	0	1.2524	22	0
27	f	32	Turkish	0	0	wemi	wemi_fal.mp3	0	down	-0.5	F6.mp4	R1.mp4	0	left	left	1	1.9899	1	F6.mp4	R1.mp4	1	0	down	1	2.3287	10	0
27	f	32	Turkish	0	0	wemi	wemi_ris.mp3	1	up	0.5	F3.mp4	R3.mp4	0	right	right	1	4.1831	21	R3.mp4	F3.mp4	0	1	down	0	2.4437	6	0
27	f	32	Turkish	0	0	yilel	yilel_fal.mp3	0	down	-0.5	F1.mp4	R2.mp4	0	left	right	0	8.017	9	R2.mp4	F1.mp4	0	1	down	1	2.2529	1	0
27	f	32	Turkish	0	0	yilel	yilel_ris.mp3	1	up	0.5	F8.mp4	R2.mp4	0	right	right	1	1.8191	23	R2.mp4	F8.mp4	0	1	up	1	1.6228	20	1
27	f	32	Turkish	0	0	yina	yina_fal.mp3	0	down	-0.5	F9.mp4	R5.mp4	0	left	right	0	11.3073	15	R5.mp4	F9.mp4	0	1	down	1	0.9536	16	0
27	f	32	Turkish	0	0	yina	yina_ris.mp3	1	up	0.5	R11.mp4	F10.mp4	1	left	right	0	9.8979	22	F10.mp4	R11.mp4	0	0	down	0	1.1031	17	0
27	f	32	Turkish	0	0	ylo	ylo_fal.mp3	0	down	-0.5	F11.mp4	R4.mp4	0	left	right	0	2.5531	13	R4.mp4	F11.mp4	0	1	down	1	2.2453	2	0
27	f	32	Turkish	0	0	ylo	ylo_ris.mp3	1	up	0.5	F5.mp4	R12.mp4	0	right	right	1	0.5403	4	R12.mp4	F5.mp4	0	1	down	0	6.738	21	0
28	m	18	Turkish	0	0	ivam	ivam_fal.mp3	0	down	-0.5	F9.mp4	R12.mp4	0	left	left	1	1.0017	3	F9.mp4	R12.mp4	1	0	up	0	1.5102	12	1
28	m	18	Turkish	0	0	ivam	ivam_ris.mp3	1	up	0.5	F2.mp4	R9.mp4	0	right	right	1	2.9182	10	R9.mp4	F2.mp4	0	1	up	1	1.1938	6	1
28	m	18	Turkish	0	0	limer	limer_fal.mp3	0	down	-0.5	R7.mp4	F8.mp4	1	right	right	1	0.3674	21	F8.mp4	R7.mp4	0	0	down	1	2.4444	23	0
28	m	18	Turkish	0	0	limer	limer_ris.mp3	1	up	0.5	R1.mp4	F9.mp4	1	left	left	1	0.9178	1	R1.mp4	F9.mp4	1	1	up	1	1.7436	9	1
28	m	18	Turkish	0	0	maro	maro_fal.mp3	0	down	-0.5	F5.mp4	R10.mp4	0	left	left	1	0.7436	22	F5.mp4	R10.mp4	1	0	down	1	0.9959	21	0
28	m	18	Turkish	0	0	maro	maro_ris.mp3	1	up	0.5	F11.mp4	R6.mp4	0	right	right	1	0.2456	17	R6.mp4	F11.mp4	0	1	up	1	0.9469	19	1
28	m	18	Turkish	0	0	reman	reman_fal.mp3	0	down	-0.5	F1.mp4	R4.mp4	0	left	right	0	1.8924	12	R4.mp4	F1.mp4	0	1	up	0	1.9447	13	1
28	m	18	Turkish	0	0	reman	reman_ris.mp3	1	up	0.5	F3.mp4	R2.mp4	0	right	left	0	0.6271	2	F3.mp4	R2.mp4	1	0	up	1	1.6946	3	1
28	m	18	Turkish	0	0	shinen	shinen_fal.mp3	0	down	-0.5	F12.mp4	R1.mp4	0	left	left	1	0.7521	8	F12.mp4	R1.mp4	1	0	down	1	3.5947	0	0
28	m	18	Turkish	0	0	shinen	shinen_ris.mp3	1	up	0.5	R5.mp4	F6.mp4	1	left	right	0	0.5856	23	F6.mp4	R5.mp4	0	0	up	1	1.6782	18	1
28	m	18	Turkish	0	0	teya	teya_fal.mp3	0	down	-0.5	R11.mp4	F3.mp4	1	right	right	1	0.7541	13	F3.mp4	R11.mp4	0	0	down	1	0.9111	22	0
28	m	18	Turkish	0	0	teya	teya_ris.mp3	1	up	0.5	F7.mp4	R8.mp4	0	right	right	1	0.8757	0	R8.mp4	F7.mp4	0	1	up	1	1.0816	8	1
28	m	18	Turkish	0	0	tila	tila_fal.mp3	0	down	-0.5	R9.mp4	F10.mp4	1	right	right	1	15.1733	15	F10.mp4	R9.mp4	0	0	down	1	1.8773	2	0
28	m	18	Turkish	0	0	tila	tila_ris.mp3	1	up	0.5	F10.mp4	R11.mp4	0	right	left	0	0.7844	7	F10.mp4	R11.mp4	1	0	up	1	1.4444	1	1
28	m	18	Turkish	0	0	vewa	vewa_fal.mp3	0	down	-0.5	F6.mp4	R3.mp4	0	left	left	1	0.409	9	F6.mp4	R3.mp4	1	0	down	1	1.1104	16	0
28	m	18	Turkish	0	0	vewa	vewa_ris.mp3	1	up	0.5	R3.mp4	F1.mp4	1	left	left	1	2.7722	18	R3.mp4	F1.mp4	1	1	up	1	2.7101	14	1
28	m	18	Turkish	0	0	wemi	wemi_fal.mp3	0	down	-0.5	F11.mp4	R8.mp4	0	left	left	1	1.3948	4	F11.mp4	R8.mp4	1	0	down	1	1.0334	17	0
28	m	18	Turkish	0	0	wemi	wemi_ris.mp3	1	up	0.5	R4.mp4	F4.mp4	1	left	right	0	0.9562	11	F4.mp4	R4.mp4	0	0	up	1	1.1427	7	1
28	m	18	Turkish	0	0	yilel	yilel_fal.mp3	0	down	-0.5	R6.mp4	F4.mp4	1	right	right	1	1.1178	5	F4.mp4	R6.mp4	0	0	down	1	1.0596	11	0
28	m	18	Turkish	0	0	yilel	yilel_ris.mp3	1	up	0.5	F5.mp4	R10.mp4	0	right	left	0	0.8415	19	F5.mp4	R10.mp4	1	0	up	1	0.9433	20	1
28	m	18	Turkish	0	0	yina	yina_fal.mp3	0	down	-0.5	R5.mp4	F7.mp4	1	right	left	0	7.0321	16	R5.mp4	F7.mp4	1	1	down	1	1.4614	5	0
28	m	18	Turkish	0	0	yina	yina_ris.mp3	1	up	0.5	F12.mp4	R7.mp4	0	right	left	0	0.9846	20	F12.mp4	R7.mp4	1	0	up	1	1.627	10	1
28	m	18	Turkish	0	0	ylo	ylo_fal.mp3	0	down	-0.5	F2.mp4	R2.mp4	0	left	right	0	0.3762	6	R2.mp4	F2.mp4	0	1	down	1	1.1937	4	0
28	m	18	Turkish	0	0	ylo	ylo_ris.mp3	1	up	0.5	F8.mp4	R12.mp4	0	right	left	0	0.1347	14	F8.mp4	R12.mp4	1	0	up	1	1.2279	15	1
29	m	23	Turkish	0	0	ivam	ivam_fal.mp3	0	down	-0.5	F3.mp4	R3.mp4	0	left	left	1	1.405	23	F3.mp4	R3.mp4	1	0	up	0	0.898	10	1
29	m	23	Turkish	0	0	ivam	ivam_ris.mp3	1	up	0.5	R8.mp4	F3.mp4	1	left	right	0	0.648	14	F3.mp4	R8.mp4	0	0	up	1	0.893	8	1
29	m	23	Turkish	0	0	limer	limer_fal.mp3	0	down	-0.5	F2.mp4	R11.mp4	0	left	right	0	0.901	6	R11.mp4	F2.mp4	0	1	down	1	0.649	9	0
29	m	23	Turkish	0	0	limer	limer_ris.mp3	1	up	0.5	R7.mp4	F1.mp4	1	left	left	1	1.546	3	R7.mp4	F1.mp4	1	1	down	0	1.098	1	0
29	m	23	Turkish	0	0	maro	maro_fal.mp3	0	down	-0.5	F11.mp4	R10.mp4	0	left	right	0	1.016	1	R10.mp4	F11.mp4	0	1	down	1	0.842	13	0
29	m	23	Turkish	0	0	maro	maro_ris.mp3	1	up	0.5	F5.mp4	R12.mp4	0	right	right	1	2	21	R12.mp4	F5.mp4	0	1	up	1	1.28	11	1
29	m	23	Turkish	0	0	reman	reman_fal.mp3	0	down	-0.5	F7.mp4	R4.mp4	0	left	right	0	0.836	2	R4.mp4	F7.mp4	0	1	down	1	0.787	7	0
29	m	23	Turkish	0	0	reman	reman_ris.mp3	1	up	0.5	F6.mp4	R3.mp4	0	right	right	1	1.245	19	R3.mp4	F6.mp4	0	1	up	1	1.067	22	1
29	m	23	Turkish	0	0	shinen	shinen_fal.mp3	0	down	-0.5	R7.mp4	F6.mp4	1	right	left	0	2.49	12	R7.mp4	F6.mp4	1	1	down	1	0.9	3	0
29	m	23	Turkish	0	0	shinen	shinen_ris.mp3	1	up	0.5	F8.mp4	R5.mp4	0	right	left	0	1.505	18	F8.mp4	R5.mp4	1	0	down	0	1.029	21	0
29	m	23	Turkish	0	0	teya	teya_fal.mp3	0	down	-0.5	F10.mp4	R5.mp4	0	left	left	1	1.889	0	F10.mp4	R5.mp4	1	0	down	1	1.146	14	0
29	m	23	Turkish	0	0	teya	teya_ris.mp3	1	up	0.5	F2.mp4	R4.mp4	0	right	right	1	0.251	11	R4.mp4	F2.mp4	0	1	up	1	2.155	0	1
29	m	23	Turkish	0	0	tila	tila_fal.mp3	0	down	-0.5	F4.mp4	R9.mp4	0	left	right	0	0.644	15	R9.mp4	F4.mp4	0	1	down	1	1.031	5	0
29	m	23	Turkish	0	0	tila	tila_ris.mp3	1	up	0.5	R2.mp4	F12.mp4	1	left	left	1	1.259	10	R2.mp4	F12.mp4	1	1	up	1	1.442	19	1
29	m	23	Turkish	0	0	vewa	vewa_fal.mp3	0	down	-0.5	R6.mp4	F5.mp4	1	right	right	1	4.604	13	F5.mp4	R6.mp4	0	0	down	1	1.038	6	0
29	m	23	Turkish	0	0	vewa	vewa_ris.mp3	1	up	0.5	F7.mp4	R10.mp4	0	right	left	0	1.163	22	F7.mp4	R10.mp4	1	0	up	1	0.78	12	1
29	m	23	Turkish	0	0	wemi	wemi_fal.mp3	0	down	-0.5	R12.mp4	F9.mp4	1	right	right	1	0.896	16	F9.mp4	R12.mp4	0	0	down	1	1.27	23	0
29	m	23	Turkish	0	0	wemi	wemi_ris.mp3	1	up	0.5	F10.mp4	R1.mp4	0	right	right	1	0.821	5	R1.mp4	F10.mp4	0	1	up	1	1.029	16	1
29	m	23	Turkish	0	0	yilel	yilel_fal.mp3	0	down	-0.5	F1.mp4	R1.mp4	0	left	right	0	0.713	17	R1.mp4	F1.mp4	0	1	down	1	0.927	20	0
29	m	23	Turkish	0	0	yilel	yilel_ris.mp3	1	up	0.5	F4.mp4	R6.mp4	0	right	right	1	0.758	7	R6.mp4	F4.mp4	0	1	up	1	1.311	2	1
29	m	23	Turkish	0	0	yina	yina_fal.mp3	0	down	-0.5	F12.mp4	R2.mp4	0	left	right	0	0.669	9	R2.mp4	F12.mp4	0	1	down	1	0.71	15	0
29	m	23	Turkish	0	0	yina	yina_ris.mp3	1	up	0.5	F9.mp4	R11.mp4	0	right	left	0	2.98	20	F9.mp4	R11.mp4	1	0	down	0	1.013	18	0
29	m	23	Turkish	0	0	ylo	ylo_fal.mp3	0	down	-0.5	R8.mp4	F8.mp4	1	right	right	1	0.681	8	F8.mp4	R8.mp4	0	0	up	0	1.33	17	1
29	m	23	Turkish	0	0	ylo	ylo_ris.mp3	1	up	0.5	R9.mp4	F11.mp4	1	left	left	1	1.278	4	R9.mp4	F11.mp4	1	1	up	1	1.127	4	1
30	f	29	Turkish	0	0	ivam	ivam_fal.mp3	0	down	-0.5	R2.mp4	F8.mp4	1	right	left	0	1.1878	14	R2.mp4	F8.mp4	1	1	up	0	1.5744	1	1
30	f	29	Turkish	0	0	ivam	ivam_ris.mp3	1	up	0.5	R12.mp4	F1.mp4	1	left	right	0	0.7502	12	F1.mp4	R12.mp4	0	0	up	1	2.6652	10	1
30	f	29	Turkish	0	0	limer	limer_fal.mp3	0	down	-0.5	R3.mp4	F1.mp4	1	right	left	0	1.291	1	R3.mp4	F1.mp4	1	1	down	1	4.3145	0	0
30	f	29	Turkish	0	0	limer	limer_ris.mp3	1	up	0.5	R2.mp4	F9.mp4	1	left	left	1	0.6749	13	R2.mp4	F9.mp4	1	1	down	0	1.5479	5	0
30	f	29	Turkish	0	0	maro	maro_fal.mp3	0	down	-0.5	R1.mp4	F11.mp4	1	right	right	1	9.2519	20	F11.mp4	R1.mp4	0	0	up	0	1.9983	3	1
30	f	29	Turkish	0	0	maro	maro_ris.mp3	1	up	0.5	F8.mp4	R1.mp4	0	right	right	1	0.7912	10	R1.mp4	F8.mp4	0	1	down	0	1.3486	12	0
30	f	29	Turkish	0	0	reman	reman_fal.mp3	0	down	-0.5	F4.mp4	R5.mp4	0	left	right	0	0.5953	18	R5.mp4	F4.mp4	0	1	up	0	1.1631	15	1
30	f	29	Turkish	0	0	reman	reman_ris.mp3	1	up	0.5	R10.mp4	F12.mp4	1	left	right	0	0.8267	5	F12.mp4	R10.mp4	0	0	down	0	16.9612	9	0
30	f	29	Turkish	0	0	shinen	shinen_fal.mp3	0	down	-0.5	R10.mp4	F12.mp4	1	right	left	0	9.5266	15	R10.mp4	F12.mp4	1	1	down	1	1.7425	14	0
30	f	29	Turkish	0	0	shinen	shinen_ris.mp3	1	up	0.5	F6.mp4	R9.mp4	0	right	right	1	0.712	7	R9.mp4	F6.mp4	0	1	down	0	1.6993	11	0
30	f	29	Turkish	0	0	teya	teya_fal.mp3	0	down	-0.5	R9.mp4	F10.mp4	1	right	left	0	14.7598	0	R9.mp4	F10.mp4	1	1	up	0	1.5106	21	1
30	f	29	Turkish	0	0	teya	teya_ris.mp3	1	up	0.5	F5.mp4	R11.mp4	0	right	right	1	1.1114	23	R11.mp4	F5.mp4	0	1	up	1	2.7564	2	1
30	f	29	Turkish	0	0	tila	tila_fal.mp3	0	down	-0.5	R11.mp4	F2.mp4	1	right	right	1	1.0798	3	F2.mp4	R11.mp4	0	0	up	0	2.0088	22	1
30	f	29	Turkish	0	0	tila	tila_ris.mp3	1	up	0.5	R6.mp4	F3.mp4	1	left	right	0	0.3812	17	F3.mp4	R6.mp4	0	0	up	1	1.5241	7	1
30	f	29	Turkish	0	0	vewa	vewa_fal.mp3	0	down	-0.5	F7.mp4	R8.mp4	0	left	right	0	5.6851	9	R8.mp4	F7.mp4	0	1	up	0	1.7762	18	1
30	f	29	Turkish	0	0	vewa	vewa_ris.mp3	1	up	0.5	F11.mp4	R5.mp4	0	right	left	0	0.4514	8	F11.mp4	R5.mp4	1	0	up	1	1.5163	17	1
30	f	29	Turkish	0	0	wemi	wemi_fal.mp3	0	down	-0.5	F9.mp4	R4.mp4	0	left	right	0	6.4417	11	R4.mp4	F9.mp4	0	1	down	1	1.6144	20	0
30	f	29	Turkish	0	0	wemi	wemi_ris.mp3	1	up	0.5	R4.mp4	F2.mp4	1	left	left	1	0.2234	6	R4.mp4	F2.mp4	1	1	up	1	1.7402	6	1
30	f	29	Turkish	0	0	yilel	yilel_fal.mp3	0	down	-0.5	R12.mp4	F5.mp4	1	right	right	1	1.2763	22	F5.mp4	R12.mp4	0	0	up	0	1.4929	8	1
30	f	29	Turkish	0	0	yilel	yilel_ris.mp3	1	up	0.5	F4.mp4	R8.mp4	0	right	right	1	0.4594	4	R8.mp4	F4.mp4	0	1	down	0	1.5593	19	0
30	f	29	Turkish	0	0	yina	yina_fal.mp3	0	down	-0.5	F3.mp4	R6.mp4	0	left	left	1	10.2342	19	F3.mp4	R6.mp4	1	0	up	0	1.4155	23	1
30	f	29	Turkish	0	0	yina	yina_ris.mp3	1	up	0.5	F10.mp4	R7.mp4	0	right	right	1	3.8999	16	R7.mp4	F10.mp4	0	1	up	1	1.5809	13	1
30	f	29	Turkish	0	0	ylo	ylo_fal.mp3	0	down	-0.5	F6.mp4	R7.mp4	0	left	left	1	1.5595	21	F6.mp4	R7.mp4	1	0	up	0	1.5285	4	1
30	f	29	Turkish	0	0	ylo	ylo_ris.mp3	1	up	0.5	R3.mp4	F7.mp4	1	left	right	0	7.9985	2	F7.mp4	R3.mp4	0	0	down	0	1.542	16	0
31	f	27	Turkish	0	0	ivam	ivam_fal.mp3	0	down	-0.5	F1.mp4	R1.mp4	0	left	right	0	0.6392	22	R1.mp4	F1.mp4	0	1	down	1	2.5293	11	0
31	f	27	Turkish	0	0	ivam	ivam_ris.mp3	1	up	0.5	R6.mp4	F1.mp4	1	left	left	1	0.3173	21	R6.mp4	F1.mp4	1	1	down	0	1.0147	1	0
31	f	27	Turkish	0	0	limer	limer_fal.mp3	0	down	-0.5	F11.mp4	R9.mp4	0	left	left	1	0.5975	11	F11.mp4	R9.mp4	1	0	up	0	1.8305	0	1
31	f	27	Turkish	0	0	limer	limer_ris.mp3	1	up	0.5	R5.mp4	F3.mp4	1	left	left	1	1.805	18	R5.mp4	F3.mp4	1	1	up	1	1.6974	5	1
31	f	27	Turkish	0	0	maro	maro_fal.mp3	0	down	-0.5	R3.mp4	F5.mp4	1	right	left	0	0.7018	13	R3.mp4	F5.mp4	1	1	up	0	1.5474	4	1
31	f	27	Turkish	0	0	maro	maro_ris.mp3	1	up	0.5	F8.mp4	R3.mp4	0	right	left	0	0.9833	0	F8.mp4	R3.mp4	1	0	down	0	1.6309	14	0
31	f	27	Turkish	0	0	reman	reman_fal.mp3	0	down	-0.5	R7.mp4	F2.mp4	1	right	left	0	4.7726	23	R7.mp4	F2.mp4	1	1	down	1	2.0974	6	0
31	f	27	Turkish	0	0	reman	reman_ris.mp3	1	up	0.5	F7.mp4	R1.mp4	0	right	right	1	0.689	1	R1.mp4	F7.mp4	0	1	down	0	2.067	22	0
31	f	27	Turkish	0	0	shinen	shinen_fal.mp3	0	down	-0.5	R4.mp4	F10.mp4	1	right	left	0	0.5884	4	R4.mp4	F10.mp4	1	1	down	1	1.5637	20	0
31	f	27	Turkish	0	0	shinen	shinen_ris.mp3	1	up	0.5	R7.mp4	F9.mp4	1	left	right	0	1.2506	7	F9.mp4	R7.mp4	0	0	down	0	2.0135	10	0
31	f	27	Turkish	0	0	teya	teya_fal.mp3	0	down	-0.5	R10.mp4	F3.mp4	1	right	left	0	0.4426	19	R10.mp4	F3.mp4	1	1	down	1	1.5143	21	0
31	f	27	Turkish	0	0	teya	teya_ris.mp3	1	up	0.5	R8.mp4	F5.mp4	1	left	left	1	0.2176	8	R8.mp4	F5.mp4	1	1	down	0	2.3502	12	0
31	f	27	Turkish	0	0	tila	tila_fal.mp3	0	down	-0.5	R11.mp4	F4.mp4	1	right	right	1	0.2855	14	F4.mp4	R11.mp4	0	0	up	0	2.164	7	1
31	f	27	Turkish	0	0	tila	tila_ris.mp3	1	up	0.5	F11.mp4	R12.mp4	0	right	left	0	0.797	3	F11.mp4	R12.mp4	1	0	up	1	2.53	18	1
31	f	27	Turkish	0	0	vewa	vewa_fal.mp3	0	down	-0.5	F8.mp4	R6.mp4	0	left	right	0	4.2338	12	R6.mp4	F8.mp4	0	1	down	1	1.6296	16	0
31	f	27	Turkish	0	0	vewa	vewa_ris.mp3	1	up	0.5	F4.mp4	R9.mp4	0	right	right	1	0.4224	6	R9.mp4	F4.mp4	0	1	up	1	2.3138	2	1
31	f	27	Turkish	0	0	wemi	wemi_fal.mp3	0	down	-0.5	R5.mp4	F12.mp4	1	right	right	1	0.4512	5	F12.mp4	R5.mp4	0	0	up	0	1.8655	3	1
31	f	27	Turkish	0	0	wemi	wemi_ris.mp3	1	up	0.5	R4.mp4	F2.mp4	1	left	left	1	3.222	16	R4.mp4	F2.mp4	1	1	up	1	1.6469	13	1
31	f	27	Turkish	0	0	yilel	yilel_fal.mp3	0	down	-0.5	F7.mp4	R12.mp4	0	left	right	0	4.2955	15	R12.mp4	F7.mp4	0	1	up	0	0.9978	23	1
31	f	27	Turkish	0	0	yilel	yilel_ris.mp3	1	up	0.5	F12.mp4	R2.mp4	0	right	right	1	4.4514	20	R2.mp4	F12.mp4	0	1	up	1	1.3803	9	1
31	f	27	Turkish	0	0	yina	yina_fal.mp3	0	down	-0.5	F9.mp4	R8.mp4	0	left	left	1	0.6675	2	F9.mp4	R8.mp4	1	0	down	1	2.047	8	0
31	f	27	Turkish	0	0	yina	yina_ris.mp3	1	up	0.5	F6.mp4	R11.mp4	0	right	right	1	0.1386	10	R11.mp4	F6.mp4	0	1	up	1	2.5633	15	1
31	f	27	Turkish	0	0	ylo	ylo_fal.mp3	0	down	-0.5	F6.mp4	R2.mp4	0	left	right	0	3.2522	9	R2.mp4	F6.mp4	0	1	up	0	2.3298	17	1
31	f	27	Turkish	0	0	ylo	ylo_ris.mp3	1	up	0.5	R10.mp4	F10.mp4	1	left	right	0	3.7348	17	F10.mp4	R10.mp4	0	0	up	1	1.9315	19	1
32	m	28	Turkish	0	0	ivam	ivam_fal.mp3	0	down	-0.5	F4.mp4	R10.mp4	0	left	left	1	0.49	1	F4.mp4	R10.mp4	1	0	down	1	1.9565	23	0
32	m	28	Turkish	0	0	ivam	ivam_ris.mp3	1	up	0.5	R10.mp4	F1.mp4	1	left	right	0	1.1357	21	F1.mp4	R10.mp4	0	0	down	0	1.6742	18	0
32	m	28	Turkish	0	0	limer	limer_fal.mp3	0	down	-0.5	F2.mp4	R2.mp4	0	left	left	1	0.585	23	F2.mp4	R2.mp4	1	0	down	1	0.9397	8	0
32	m	28	Turkish	0	0	limer	limer_ris.mp3	1	up	0.5	R8.mp4	F6.mp4	1	left	left	1	0.3863	4	R8.mp4	F6.mp4	1	1	down	0	5.7395	7	0
32	m	28	Turkish	0	0	maro	maro_fal.mp3	0	down	-0.5	R9.mp4	F6.mp4	1	right	left	0	0.3402	17	R9.mp4	F6.mp4	1	1	down	1	5.6798	13	0
32	m	28	Turkish	0	0	maro	maro_ris.mp3	1	up	0.5	F9.mp4	R4.mp4	0	right	left	0	8.4197	2	F9.mp4	R4.mp4	1	0	down	0	4.0142	19	0
32	m	28	Turkish	0	0	reman	reman_fal.mp3	0	down	-0.5	R4.mp4	F8.mp4	1	right	left	0	0.5932	0	R4.mp4	F8.mp4	1	1	down	1	1.4285	11	0
32	m	28	Turkish	0	0	reman	reman_ris.mp3	1	up	0.5	F12.mp4	R5.mp4	0	right	left	0	5.1189	6	F12.mp4	R5.mp4	1	0	down	0	1.1233	20	0
32	m	28	Turkish	0	0	shinen	shinen_fal.mp3	0	down	-0.5	F10.mp4	R6.mp4	0	left	left	1	0.8009	15	F10.mp4	R6.mp4	1	0	down	1	1.1395	22	0
32	m	28	Turkish	0	0	shinen	shinen_ris.mp3	1	up	0.5	R7.mp4	F4.mp4	1	left	left	1	0.3575	12	R7.mp4	F4.mp4	1	1	down	0	4.2275	6	0
32	m	28	Turkish	0	0	teya	teya_fal.mp3	0	down	-0.5	R5.mp4	F12.mp4	1	right	left	0	0.523	3	R5.mp4	F12.mp4	1	1	up	0	1.5924	5	1
32	m	28	Turkish	0	0	teya	teya_ris.mp3	1	up	0.5	R3.mp4	F2.mp4	1	left	right	0	0.7751	9	F2.mp4	R3.mp4	0	0	up	1	1.2577	16	1
32	m	28	Turkish	0	0	tila	tila_fal.mp3	0	down	-0.5	F11.mp4	R3.mp4	0	left	left	1	0.9197	10	F11.mp4	R3.mp4	1	0	up	0	1.9574	12	1
32	m	28	Turkish	0	0	tila	tila_ris.mp3	1	up	0.5	F10.mp4	R1.mp4	0	right	right	1	5.3253	14	R1.mp4	F10.mp4	0	1	up	1	1.0394	15	1
32	m	28	Turkish	0	0	vewa	vewa_fal.mp3	0	down	-0.5	F7.mp4	R12.mp4	0	left	left	1	0.3395	8	F7.mp4	R12.mp4	1	0	up	0	1.5565	10	1
32	m	28	Turkish	0	0	vewa	vewa_ris.mp3	1	up	0.5	R12.mp4	F3.mp4	1	left	right	0	0.118	5	F3.mp4	R12.mp4	0	0	up	1	4.9457	9	1
32	m	28	Turkish	0	0	wemi	wemi_fal.mp3	0	down	-0.5	F3.mp4	R8.mp4	0	left	right	0	0.3328	7	R8.mp4	F3.mp4	0	1	up	0	4.8138	0	1
32	m	28	Turkish	0	0	wemi	wemi_ris.mp3	1	up	0.5	F7.mp4	R2.mp4	0	right	left	0	1.0877	11	F7.mp4	R2.mp4	1	0	down	0	2.6619	14	0
32	m	28	Turkish	0	0	yilel	yilel_fal.mp3	0	down	-0.5	R7.mp4	F9.mp4	1	right	right	1	0.4593	13	F9.mp4	R7.mp4	0	0	down	1	1.0749	21	0
32	m	28	Turkish	0	0	yilel	yilel_ris.mp3	1	up	0.5	F11.mp4	R6.mp4	0	right	left	0	4.3244	18	F11.mp4	R6.mp4	1	0	up	1	4.5575	3	1
32	m	28	Turkish	0	0	yina	yina_fal.mp3	0	down	-0.5	R1.mp4	F5.mp4	1	right	right	1	0.6488	19	F5.mp4	R1.mp4	0	0	down	1	10.924	1	0
32	m	28	Turkish	0	0	yina	yina_ris.mp3	1	up	0.5	R9.mp4	F5.mp4	1	left	right	0	0.5394	20	F5.mp4	R9.mp4	0	0	down	0	4.0257	4	0
32	m	28	Turkish	0	0	ylo	ylo_fal.mp3	0	down	-0.5	R11.mp4	F1.mp4	1	right	left	0	0.4925	22	R11.mp4	F1.mp4	1	1	down	1	1.6734	17	0
32	m	28	Turkish	0	0	ylo	ylo_ris.mp3	1	up	0.5	R11.mp4	F8.mp4	1	left	left	1	1.2742	16	R11.mp4	F8.mp4	1	1	up	1	11.6462	2	1
33	m	28	turkish	0	0	ivam	ivam_fal.mp3	0	down	-0.5	F7.mp4	R6.mp4	0	left	right	0	0.9502	11	R6.mp4	F7.mp4	0	1	up	0	1.1444	20	1
33	m	28	turkish	0	0	ivam	ivam_ris.mp3	1	up	0.5	F8.mp4	R8.mp4	0	right	right	1	0.668	6	R8.mp4	F8.mp4	0	1	up	1	3.187	5	1
33	m	28	turkish	0	0	limer	limer_fal.mp3	0	down	-0.5	R11.mp4	F11.mp4	1	right	right	1	0.6129	23	F11.mp4	R11.mp4	0	0	down	1	2.3272	22	0
33	m	28	turkish	0	0	limer	limer_ris.mp3	1	up	0.5	R10.mp4	F4.mp4	1	left	right	0	3.0471	0	F4.mp4	R10.mp4	0	0	up	1	1.2293	21	1
33	m	28	turkish	0	0	maro	maro_fal.mp3	0	down	-0.5	R9.mp4	F2.mp4	1	right	right	1	1.2342	13	F2.mp4	R9.mp4	0	0	down	1	1.2217	9	0
33	m	28	turkish	0	0	maro	maro_ris.mp3	1	up	0.5	F7.mp4	R11.mp4	0	right	left	0	2.6385	22	F7.mp4	R11.mp4	1	0	up	1	2.4251	0	1
33	m	28	turkish	0	0	reman	reman_fal.mp3	0	down	-0.5	R4.mp4	F12.mp4	1	right	left	0	0.5015	19	R4.mp4	F12.mp4	1	1	down	1	1.6256	8	0
33	m	28	turkish	0	0	reman	reman_ris.mp3	1	up	0.5	R3.mp4	F10.mp4	1	left	right	0	0.5941	21	F10.mp4	R3.mp4	0	0	up	1	1.0866	15	1
33	m	28	turkish	0	0	shinen	shinen_fal.mp3	0	down	-0.5	F1.mp4	R2.mp4	0	left	right	0	0.3305	12	R2.mp4	F1.mp4	0	1	down	1	1.4164	18	0
33	m	28	turkish	0	0	shinen	shinen_ris.mp3	1	up	0.5	R5.mp4	F3.mp4	1	left	right	0	2.8178	8	F3.mp4	R5.mp4	0	0	up	1	1.3135	12	1
33	m	28	turkish	0	0	teya	teya_fal.mp3	0	down	-0.5	F10.mp4	R1.mp4	0	left	left	1	0.4591	10	F10.mp4	R1.mp4	1	0	down	1	1.0774	14	0
33	m	28	turkish	0	0	teya	teya_ris.mp3	1	up	0.5	F2.mp4	R2.mp4	0	right	left	0	0.0546	20	F2.mp4	R2.mp4	1	0	up	1	1.1298	10	1
33	m	28	turkish	0	0	tila	tila_fal.mp3	0	down	-0.5	R8.mp4	F3.mp4	1	right	right	1	4.5983	17	F3.mp4	R8.mp4	0	0	down	1	1.1999	19	0
33	m	28	turkish	0	0	tila	tila_ris.mp3	1	up	0.5	F1.mp4	R7.mp4	0	right	left	0	0.1277	1	F1.mp4	R7.mp4	1	0	up	1	1.4235	3	1
33	m	28	turkish	0	0	vewa	vewa_fal.mp3	0	down	-0.5	F6.mp4	R3.mp4	0	left	right	0	0.668	2	R3.mp4	F6.mp4	0	1	down	1	1.1725	4	0
33	m	28	turkish	0	0	vewa	vewa_ris.mp3	1	up	0.5	F5.mp4	R9.mp4	0	right	left	0	0.6842	14	F5.mp4	R9.mp4	1	0	up	1	1.0302	11	1
33	m	28	turkish	0	0	wemi	wemi_fal.mp3	0	down	-0.5	F4.mp4	R12.mp4	0	left	right	0	0.2254	16	R12.mp4	F4.mp4	0	1	down	1	1.1252	7	0
33	m	28	turkish	0	0	wemi	wemi_ris.mp3	1	up	0.5	F9.mp4	R12.mp4	0	right	left	0	0.9937	4	F9.mp4	R12.mp4	1	0	up	1	1.4425	1	1
33	m	28	turkish	0	0	yilel	yilel_fal.mp3	0	down	-0.5	R5.mp4	F8.mp4	1	right	right	1	0.3207	7	F8.mp4	R5.mp4	0	0	down	1	1.4161	13	0
33	m	28	turkish	0	0	yilel	yilel_ris.mp3	1	up	0.5	R6.mp4	F12.mp4	1	left	left	1	0.4746	18	R6.mp4	F12.mp4	1	1	up	1	1.2667	6	1
33	m	28	turkish	0	0	yina	yina_fal.mp3	0	down	-0.5	F5.mp4	R10.mp4	0	left	left	1	0.2662	9	F5.mp4	R10.mp4	1	0	down	1	1.2633	23	0
33	m	28	turkish	0	0	yina	yina_ris.mp3	1	up	0.5	F6.mp4	R1.mp4	0	right	right	1	0.1423	15	R1.mp4	F6.mp4	0	1	up	1	1.3903	2	1
33	m	28	turkish	0	0	ylo	ylo_fal.mp3	0	down	-0.5	F9.mp4	R7.mp4	0	left	left	1	16.3885	5	F9.mp4	R7.mp4	1	0	down	1	1.687	17	0
33	m	28	turkish	0	0	ylo	ylo_ris.mp3	1	up	0.5	F11.mp4	R4.mp4	0	right	right	1	0.4173	3	R4.mp4	F11.mp4	0	1	up	1	2.4611	16	1
34	f	32	Turkish	0	0	ivam	ivam_fal.mp3	0	down	-0.5	R9.mp4	F10.mp4	1	right	right	1	4.6979	19	F10.mp4	R9.mp4	0	0	down	1	0.661	5	0
34	f	32	Turkish	0	0	ivam	ivam_ris.mp3	1	up	0.5	R11.mp4	F1.mp4	1	left	right	0	1.2016	13	F1.mp4	R11.mp4	0	0	up	1	1.4914	17	1
34	f	32	Turkish	0	0	limer	limer_fal.mp3	0	down	-0.5	F11.mp4	R5.mp4	0	left	right	0	1.1907	4	R5.mp4	F11.mp4	0	1	down	1	2.3326	6	0
