ID	gender	age	mother.tongue	aware	word.base	word	isRising	dir	dir.num	leftFilm	rightFilm	risingLeft	correctDir	response	congruent	rt	trial	chosen.video	not.chosen.video	resp.left	resp.rising	response.pd	correct.pd	rt.pd	trial.pd	resp.rising.pd
1	f	22	spanish	0	ivam	ivam_fal.mp3	0	down	-0.5	F5.mp4	R5.mp4	0	left	right	0	0.2562	15	R5.mp4	F5.mp4	0	1	down	1	2.493	22	0
1	f	22	spanish	0	ivam	ivam_ris.mp3	1	up	0.5	R4.mp4	F11.mp4	1	left	right	0	0.8202	23	F11.mp4	R4.mp4	0	0	up	1	2.1375	8	1
1	f	22	spanish	0	limer	limer_fal.mp3	0	down	-0.5	F3.mp4	R10.mp4	0	left	left	1	0.8391	10	F3.mp4	R10.mp4	1	0	down	1	4.023	6	0
1	f	22	spanish	0	limer	limer_ris.mp3	1	up	0.5	F3.mp4	R1.mp4	0	right	right	1	1.7792	16	R1.mp4	F3.mp4	0	1	down	0	4.8504	11	0
1	f	22	spanish	0	maro	maro_fal.mp3	0	down	-0.5	R12.mp4	F8.mp4	1	right	right	1	10.5066	21	F8.mp4	R12.mp4	0	0	down	1	2.8903	2	0
1	f	22	spanish	0	maro	maro_ris.mp3	1	up	0.5	R5.mp4	F8.mp4	1	left	right	0	1.0324	14	F8.mp4	R5.mp4	0	0	up	1	4.5988	9	1
1	f	22	spanish	0	reman	reman_fal.mp3	0	down	-0.5	F1.mp4	R4.mp4	0	left	right	0	0.3677	9	R4.mp4	F1.mp4	0	1	down	1	1.4262	1	0
1	f	22	spanish	0	reman	reman_ris.mp3	1	up	0.5	R6.mp4	F12.mp4	1	left	left	1	1.3457	0	R6.mp4	F12.mp4	1	1	up	1	1.4265	3	1
1	f	22	spanish	0	shinen	shinen_fal.mp3	0	down	-0.5	F11.mp4	R8.mp4	0	left	right	0	0.7507	7	R8.mp4	F11.mp4	0	1	down	1	2.8048	23	0
1	f	22	spanish	0	shinen	shinen_ris.mp3	1	up	0.5	F7.mp4	R12.mp4	0	right	left	0	3.4036	18	F7.mp4	R12.mp4	1	0	up	1	3.7685	21	1
1	f	22	spanish	0	teya	teya_fal.mp3	0	down	-0.5	R7.mp4	F7.mp4	1	right	left	0	2.1688	13	R7.mp4	F7.mp4	1	1	down	1	1.2942	4	0
1	f	22	spanish	0	teya	teya_ris.mp3	1	up	0.5	R11.mp4	F4.mp4	1	left	left	1	0.1967	20	R11.mp4	F4.mp4	1	1	up	1	3.3882	0	1
1	f	22	spanish	0	tila	tila_fal.mp3	0	down	-0.5	F12.mp4	R6.mp4	0	left	left	1	1.7717	2	F12.mp4	R6.mp4	1	0	up	0	2.9719	20	1
1	f	22	spanish	0	tila	tila_ris.mp3	1	up	0.5	R7.mp4	F2.mp4	1	left	left	1	2.1971	22	R7.mp4	F2.mp4	1	1	up	1	1.2278	7	1
1	f	22	spanish	0	vewa	vewa_fal.mp3	0	down	-0.5	F9.mp4	R9.mp4	0	left	right	0	2.4383	11	R9.mp4	F9.mp4	0	1	down	1	1.894	13	0
1	f	22	spanish	0	vewa	vewa_ris.mp3	1	up	0.5	F1.mp4	R8.mp4	0	right	left	0	7.9197	17	F1.mp4	R8.mp4	1	0	up	1	2.1634	18	1
1	f	22	spanish	0	wemi	wemi_fal.mp3	0	down	-0.5	R11.mp4	F2.mp4	1	right	right	1	1.8685	5	F2.mp4	R11.mp4	0	0	down	1	2.9407	5	0
1	f	22	spanish	0	wemi	wemi_ris.mp3	1	up	0.5	F9.mp4	R10.mp4	0	right	right	1	3.4967	6	R10.mp4	F9.mp4	0	1	up	1	3.4275	16	1
1	f	22	spanish	0	yilel	yilel_fal.mp3	0	down	-0.5	R1.mp4	F6.mp4	1	right	right	1	0.82	3	F6.mp4	R1.mp4	0	0	down	1	2.6937	19	0
1	f	22	spanish	0	yilel	yilel_ris.mp3	1	up	0.5	F5.mp4	R3.mp4	0	right	right	1	4.4716	12	R3.mp4	F5.mp4	0	1	up	1	4.0576	15	1
1	f	22	spanish	0	yina	yina_fal.mp3	0	down	-0.5	F10.mp4	R3.mp4	0	left	right	0	0.2432	1	R3.mp4	F10.mp4	0	1	down	1	1.1733	10	0
1	f	22	spanish	0	yina	yina_ris.mp3	1	up	0.5	F10.mp4	R9.mp4	0	right	left	0	3.1195	8	F10.mp4	R9.mp4	1	0	up	1	1.5468	12	1
1	f	22	spanish	0	ylo	ylo_fal.mp3	0	down	-0.5	R2.mp4	F4.mp4	1	right	right	1	2.4429	19	F4.mp4	R2.mp4	0	0	down	1	1.5749	17	0
1	f	22	spanish	0	ylo	ylo_ris.mp3	1	up	0.5	R2.mp4	F6.mp4	1	left	left	1	0.8297	4	R2.mp4	F6.mp4	1	1	down	0	3.9093	14	0
2	m	21	spanish	0	ivam	ivam_fal.mp3	0	down	-0.5	R4.mp4	F11.mp4	1	right	right	1	1.5891	11	F11.mp4	R4.mp4	0	0	down	1	1.7548	15	0
2	m	21	spanish	0	ivam	ivam_ris.mp3	1	up	0.5	F11.mp4	R1.mp4	0	right	left	0	0.7183	5	F11.mp4	R1.mp4	1	0	up	1	1.7524	5	1
2	m	21	spanish	0	limer	limer_fal.mp3	0	down	-0.5	R3.mp4	F3.mp4	1	right	right	1	1.3002	15	F3.mp4	R3.mp4	0	0	down	1	1.6216	21	0
2	m	21	spanish	0	limer	limer_ris.mp3	1	up	0.5	R12.mp4	F5.mp4	1	left	right	0	0.4787	18	F5.mp4	R12.mp4	0	0	down	0	2.022	9	0
2	m	21	spanish	0	maro	maro_fal.mp3	0	down	-0.5	R1.mp4	F5.mp4	1	right	left	0	2.3643	1	R1.mp4	F5.mp4	1	1	down	1	1.2525	6	0
2	m	21	spanish	0	maro	maro_ris.mp3	1	up	0.5	F4.mp4	R11.mp4	0	right	left	0	1.7679	23	F4.mp4	R11.mp4	1	0	down	0	5.7261	4	0
2	m	21	spanish	0	reman	reman_fal.mp3	0	down	-0.5	F9.mp4	R6.mp4	0	left	left	1	1.2583	3	F9.mp4	R6.mp4	1	0	down	1	1.1813	12	0
2	m	21	spanish	0	reman	reman_ris.mp3	1	up	0.5	R7.mp4	F10.mp4	1	left	left	1	3.578	22	R7.mp4	F10.mp4	1	1	up	1	1.2409	19	1
2	m	21	spanish	0	shinen	shinen_fal.mp3	0	down	-0.5	R7.mp4	F10.mp4	1	right	right	1	3.812	14	F10.mp4	R7.mp4	0	0	down	1	1.5703	14	0
2	m	21	spanish	0	shinen	shinen_ris.mp3	1	up	0.5	R3.mp4	F3.mp4	1	left	right	0	0.2849	9	F3.mp4	R3.mp4	0	0	up	1	3.4209	10	1
2	m	21	spanish	0	teya	teya_fal.mp3	0	down	-0.5	F8.mp4	R12.mp4	0	left	left	1	2.6384	17	F8.mp4	R12.mp4	1	0	up	0	2.2798	16	1
2	m	21	spanish	0	teya	teya_ris.mp3	1	up	0.5	F12.mp4	R2.mp4	0	right	right	1	0.9949	19	R2.mp4	F12.mp4	0	1	up	1	1.4302	8	1
2	m	21	spanish	0	tila	tila_fal.mp3	0	down	-0.5	F12.mp4	R9.mp4	0	left	left	1	0.6353	7	F12.mp4	R9.mp4	1	0	down	1	1.3256	1	0
2	m	21	spanish	0	tila	tila_ris.mp3	1	up	0.5	R6.mp4	F6.mp4	1	left	left	1	0.6503	13	R6.mp4	F6.mp4	1	1	up	1	1.2377	17	1
2	m	21	spanish	0	vewa	vewa_fal.mp3	0	down	-0.5	R5.mp4	F6.mp4	1	right	right	1	0.042	8	F6.mp4	R5.mp4	0	0	down	1	2.6386	2	0
2	m	21	spanish	0	vewa	vewa_ris.mp3	1	up	0.5	F9.mp4	R8.mp4	0	right	right	1	0.2985	2	R8.mp4	F9.mp4	0	1	up	1	1.0746	13	1
2	m	21	spanish	0	wemi	wemi_fal.mp3	0	down	-0.5	R2.mp4	F1.mp4	1	right	left	0	0.9367	21	R2.mp4	F1.mp4	1	1	down	1	2.796	3	0
2	m	21	spanish	0	wemi	wemi_ris.mp3	1	up	0.5	R10.mp4	F8.mp4	1	left	right	0	0.5862	20	F8.mp4	R10.mp4	0	0	up	1	1.5691	7	1
2	m	21	spanish	0	yilel	yilel_fal.mp3	0	down	-0.5	F7.mp4	R11.mp4	0	left	right	0	0.4088	12	R11.mp4	F7.mp4	0	1	down	1	1.036	18	0
2	m	21	spanish	0	yilel	yilel_ris.mp3	1	up	0.5	R4.mp4	F1.mp4	1	left	left	1	1.7767	10	R4.mp4	F1.mp4	1	1	up	1	3.0479	0	1
2	m	21	spanish	0	yina	yina_fal.mp3	0	down	-0.5	F4.mp4	R10.mp4	0	left	left	1	0.5231	0	F4.mp4	R10.mp4	1	0	down	1	1.0358	20	0
2	m	21	spanish	0	yina	yina_ris.mp3	1	up	0.5	F7.mp4	R5.mp4	0	right	right	1	0.2201	6	R5.mp4	F7.mp4	0	1	up	1	4.0146	11	1
2	m	21	spanish	0	ylo	ylo_fal.mp3	0	down	-0.5	F2.mp4	R8.mp4	0	left	left	1	5.9545	4	F2.mp4	R8.mp4	1	0	down	1	1.6462	22	0
2	m	21	spanish	0	ylo	ylo_ris.mp3	1	up	0.5	R9.mp4	F2.mp4	1	left	left	1	4.0263	16	R9.mp4	F2.mp4	1	1	up	1	3.4048	23	1
3	m	23	spanish	0	ivam	ivam_fal.mp3	0	down	-0.5	R7.mp4	F3.mp4	1	right	left	0	1.401	17	R7.mp4	F3.mp4	1	1	up	0	5.3325	18	1
3	m	23	spanish	0	ivam	ivam_ris.mp3	1	up	0.5	R10.mp4	F6.mp4	1	left	left	1	0.7728	13	R10.mp4	F6.mp4	1	1	up	1	1.4714	3	1
3	m	23	spanish	0	limer	limer_fal.mp3	0	down	-0.5	F12.mp4	R8.mp4	0	left	left	1	7.1225	12	F12.mp4	R8.mp4	1	0	up	0	1.6119	12	1
3	m	23	spanish	0	limer	limer_ris.mp3	1	up	0.5	F9.mp4	R1.mp4	0	right	left	0	0.8789	6	F9.mp4	R1.mp4	1	0	down	0	1.576	10	0
3	m	23	spanish	0	maro	maro_fal.mp3	0	down	-0.5	R11.mp4	F5.mp4	1	right	left	0	1.3862	0	R11.mp4	F5.mp4	1	1	down	1	3.2783	21	0
3	m	23	spanish	0	maro	maro_ris.mp3	1	up	0.5	F11.mp4	R11.mp4	0	right	right	1	4.3665	15	R11.mp4	F11.mp4	0	1	up	1	3.4094	15	1
3	m	23	spanish	0	reman	reman_fal.mp3	0	down	-0.5	R12.mp4	F4.mp4	1	right	right	1	1.2776	19	F4.mp4	R12.mp4	0	0	down	1	1.5801	9	0
3	m	23	spanish	0	reman	reman_ris.mp3	1	up	0.5	R9.mp4	F2.mp4	1	left	right	0	1.0652	21	F2.mp4	R9.mp4	0	0	up	1	2.2368	4	1
3	m	23	spanish	0	shinen	shinen_fal.mp3	0	down	-0.5	R4.mp4	F8.mp4	1	right	left	0	0.4269	5	R4.mp4	F8.mp4	1	1	down	1	1.2811	8	0
3	m	23	spanish	0	shinen	shinen_ris.mp3	1	up	0.5	R12.mp4	F3.mp4	1	left	right	0	1.2096	16	F3.mp4	R12.mp4	0	0	up	1	1.9043	2	1
3	m	23	spanish	0	teya	teya_fal.mp3	0	down	-0.5	F7.mp4	R2.mp4	0	left	left	1	0.4422	3	F7.mp4	R2.mp4	1	0	down	1	13.7189	23	0
3	m	23	spanish	0	teya	teya_ris.mp3	1	up	0.5	R4.mp4	F10.mp4	1	left	left	1	0.6124	8	R4.mp4	F10.mp4	1	1	up	1	2.6257	14	1
3	m	23	spanish	0	tila	tila_fal.mp3	0	down	-0.5	F6.mp4	R6.mp4	0	left	right	0	3.7457	4	R6.mp4	F6.mp4	0	1	down	1	12.4303	0	0
3	m	23	spanish	0	tila	tila_ris.mp3	1	up	0.5	R2.mp4	F1.mp4	1	left	left	1	1.4761	2	R2.mp4	F1.mp4	1	1	up	1	1.9554	5	1
3	m	23	spanish	0	vewa	vewa_fal.mp3	0	down	-0.5	R3.mp4	F9.mp4	1	right	left	0	0.7743	11	R3.mp4	F9.mp4	1	1	down	1	3.1373	16	0
3	m	23	spanish	0	vewa	vewa_ris.mp3	1	up	0.5	F8.mp4	R3.mp4	0	right	left	0	1.0087	1	F8.mp4	R3.mp4	1	0	up	1	1.3193	6	1
3	m	23	spanish	0	wemi	wemi_fal.mp3	0	down	-0.5	R9.mp4	F11.mp4	1	right	left	0	0.6553	20	R9.mp4	F11.mp4	1	1	down	1	7.2034	22	0
3	m	23	spanish	0	wemi	wemi_ris.mp3	1	up	0.5	R6.mp4	F12.mp4	1	left	right	0	2.6557	23	F12.mp4	R6.mp4	0	0	up	1	1.4295	7	1
3	m	23	spanish	0	yilel	yilel_fal.mp3	0	down	-0.5	F1.mp4	R1.mp4	0	left	right	0	0.6666	14	R1.mp4	F1.mp4	0	1	down	1	2.0121	11	0
3	m	23	spanish	0	yilel	yilel_ris.mp3	1	up	0.5	F7.mp4	R7.mp4	0	right	right	1	7.2686	22	R7.mp4	F7.mp4	0	1	up	1	1.7231	13	1
3	m	23	spanish	0	yina	yina_fal.mp3	0	down	-0.5	F10.mp4	R5.mp4	0	left	right	0	2.0693	7	R5.mp4	F10.mp4	0	1	down	1	7.4544	17	0
3	m	23	spanish	0	yina	yina_ris.mp3	1	up	0.5	F5.mp4	R5.mp4	0	right	right	1	0.8393	18	R5.mp4	F5.mp4	0	1	up	1	2.41	20	1
3	m	23	spanish	0	ylo	ylo_fal.mp3	0	down	-0.5	F2.mp4	R10.mp4	0	left	left	1	5.2938	10	F2.mp4	R10.mp4	1	0	down	1	2.1247	1	0
3	m	23	spanish	0	ylo	ylo_ris.mp3	1	up	0.5	F4.mp4	R8.mp4	0	right	left	0	0.5889	9	F4.mp4	R8.mp4	1	0	down	0	1.4753	19	0
4	f	24	spanish	0	ivam	ivam_fal.mp3	0	down	-0.5	F5.mp4	R6.mp4	0	left	right	0	29.9914	21	R6.mp4	F5.mp4	0	1	up	0	1.9658	10	1
4	f	24	spanish	0	ivam	ivam_ris.mp3	1	up	0.5	R12.mp4	F4.mp4	1	left	right	0	0.1078	12	F4.mp4	R12.mp4	0	0	up	1	2.3425	22	1
4	f	24	spanish	0	limer	limer_fal.mp3	0	down	-0.5	F3.mp4	R7.mp4	0	left	left	1	11.0405	19	F3.mp4	R7.mp4	1	0	up	0	0.5649	9	1
4	f	24	spanish	0	limer	limer_ris.mp3	1	up	0.5	R2.mp4	F5.mp4	1	left	left	1	6.2074	8	R2.mp4	F5.mp4	1	1	up	1	1.026	13	1
4	f	24	spanish	0	maro	maro_fal.mp3	0	down	-0.5	R5.mp4	F10.mp4	1	right	left	0	4.759	15	R5.mp4	F10.mp4	1	1	up	0	5.6586	17	1
4	f	24	spanish	0	maro	maro_ris.mp3	1	up	0.5	R9.mp4	F12.mp4	1	left	left	1	9.5194	10	R9.mp4	F12.mp4	1	1	up	1	0.5822	20	1
4	f	24	spanish	0	reman	reman_fal.mp3	0	down	-0.5	R9.mp4	F2.mp4	1	right	left	0	6.2193	9	R9.mp4	F2.mp4	1	1	up	0	0.545	11	1
4	f	24	spanish	0	reman	reman_ris.mp3	1	up	0.5	F1.mp4	R5.mp4	0	right	left	0	4.3136	22	F1.mp4	R5.mp4	1	0	up	1	0.1937	12	1
4	f	24	spanish	0	shinen	shinen_fal.mp3	0	down	-0.5	F6.mp4	R8.mp4	0	left	right	0	6.418	16	R8.mp4	F6.mp4	0	1	down	1	0.0882	8	0
4	f	24	spanish	0	shinen	shinen_ris.mp3	1	up	0.5	R1.mp4	F7.mp4	1	left	right	0	5.1077	2	F7.mp4	R1.mp4	0	0	up	1	13.3667	3	1
4	f	24	spanish	0	teya	teya_fal.mp3	0	down	-0.5	F11.mp4	R10.mp4	0	left	right	0	23.3279	13	R10.mp4	F11.mp4	0	1	up	0	0.4924	15	1
4	f	24	spanish	0	teya	teya_ris.mp3	1	up	0.5	R3.mp4	F9.mp4	1	left	right	0	0.6421	0	F9.mp4	R3.mp4	0	0	down	0	1.3683	5	0
4	f	24	spanish	0	tila	tila_fal.mp3	0	down	-0.5	F4.mp4	R2.mp4	0	left	right	0	10.4391	20	R2.mp4	F4.mp4	0	1	up	0	0.3675	16	1
4	f	24	spanish	0	tila	tila_ris.mp3	1	up	0.5	F2.mp4	R11.mp4	0	right	right	1	8.2526	17	R11.mp4	F2.mp4	0	1	down	0	1.7856	23	0
4	f	24	spanish	0	vewa	vewa_fal.mp3	0	down	-0.5	R12.mp4	F9.mp4	1	right	left	0	1.5973	14	R12.mp4	F9.mp4	1	1	up	0	0.4063	14	1
4	f	24	spanish	0	vewa	vewa_ris.mp3	1	up	0.5	R7.mp4	F11.mp4	1	left	right	0	6.396	7	F11.mp4	R7.mp4	0	0	up	1	0.0379	18	1
4	f	24	spanish	0	wemi	wemi_fal.mp3	0	down	-0.5	F8.mp4	R1.mp4	0	left	right	0	7.8732	6	R1.mp4	F8.mp4	0	1	up	0	3.621	7	1
4	f	24	spanish	0	wemi	wemi_ris.mp3	1	up	0.5	F8.mp4	R8.mp4	0	right	right	1	1.0002	23	R8.mp4	F8.mp4	0	1	up	1	5.2075	2	1
4	f	24	spanish	0	yilel	yilel_fal.mp3	0	down	-0.5	F7.mp4	R3.mp4	0	left	right	0	6.9437	18	R3.mp4	F7.mp4	0	1	up	0	8.1038	0	1
4	f	24	spanish	0	yilel	yilel_ris.mp3	1	up	0.5	R6.mp4	F6.mp4	1	left	right	0	0.9098	5	F6.mp4	R6.mp4	0	0	down	0	0.9321	21	0
4	f	24	spanish	0	yina	yina_fal.mp3	0	down	-0.5	F12.mp4	R4.mp4	0	left	right	0	127.5046	4	R4.mp4	F12.mp4	0	1	down	1	1.7127	1	0
4	f	24	spanish	0	yina	yina_ris.mp3	1	up	0.5	R4.mp4	F3.mp4	1	left	right	0	1.088	11	F3.mp4	R4.mp4	0	0	down	0	2.0789	4	0
4	f	24	spanish	0	ylo	ylo_fal.mp3	0	down	-0.5	R11.mp4	F1.mp4	1	right	right	1	14.8956	1	F1.mp4	R11.mp4	0	0	up	0	83.5154	19	1
4	f	24	spanish	0	ylo	ylo_ris.mp3	1	up	0.5	F10.mp4	R10.mp4	0	right	right	1	137.7662	3	R10.mp4	F10.mp4	0	1	down	0	1.1425	6	0
5	f	28	spanish	0	ivam	ivam_fal.mp3	0	down	-0.5	R7.mp4	F5.mp4	1	right	right	1	1.7876	8	F5.mp4	R7.mp4	0	0	up	0	3.0968	2	1
5	f	28	spanish	0	ivam	ivam_ris.mp3	1	up	0.5	R8.mp4	F8.mp4	1	left	right	0	7.4028	19	F8.mp4	R8.mp4	0	0	up	1	1.1429	8	1
5	f	28	spanish	0	limer	limer_fal.mp3	0	down	-0.5	R3.mp4	F8.mp4	1	right	left	0	1.4355	5	R3.mp4	F8.mp4	1	1	up	0	1.0437	19	1
5	f	28	spanish	0	limer	limer_ris.mp3	1	up	0.5	R3.mp4	F5.mp4	1	left	left	1	8.818	12	R3.mp4	F5.mp4	1	1	up	1	2.6915	13	1
5	f	28	spanish	0	maro	maro_fal.mp3	0	down	-0.5	F6.mp4	R9.mp4	0	left	right	0	0.301	18	R9.mp4	F6.mp4	0	1	down	1	3.0819	10	0
5	f	28	spanish	0	maro	maro_ris.mp3	1	up	0.5	F7.mp4	R4.mp4	0	right	right	1	0.708	9	R4.mp4	F7.mp4	0	1	up	1	0.9902	17	1
5	f	28	spanish	0	reman	reman_fal.mp3	0	down	-0.5	F11.mp4	R4.mp4	0	left	left	1	8.586	23	F11.mp4	R4.mp4	1	0	down	1	1.1599	22	0
5	f	28	spanish	0	reman	reman_ris.mp3	1	up	0.5	F2.mp4	R12.mp4	0	right	right	1	0.1337	11	R12.mp4	F2.mp4	0	1	down	0	1.0088	21	0
5	f	28	spanish	0	shinen	shinen_fal.mp3	0	down	-0.5	F2.mp4	R6.mp4	0	left	left	1	1.3349	2	F2.mp4	R6.mp4	1	0	down	1	2.4444	1	0
5	f	28	spanish	0	shinen	shinen_ris.mp3	1	up	0.5	F6.mp4	R2.mp4	0	right	right	1	0.2258	7	R2.mp4	F6.mp4	0	1	down	0	1.7347	15	0
5	f	28	spanish	0	teya	teya_fal.mp3	0	down	-0.5	R10.mp4	F3.mp4	1	right	right	1	0.7872	1	F3.mp4	R10.mp4	0	0	down	1	2.1392	6	0
5	f	28	spanish	0	teya	teya_ris.mp3	1	up	0.5	F1.mp4	R9.mp4	0	right	left	0	1.4226	17	F1.mp4	R9.mp4	1	0	up	1	1.2263	20	1
5	f	28	spanish	0	tila	tila_fal.mp3	0	down	-0.5	R2.mp4	F4.mp4	1	right	right	1	1.5063	6	F4.mp4	R2.mp4	0	0	up	0	1.566	4	1
5	f	28	spanish	0	tila	tila_ris.mp3	1	up	0.5	R1.mp4	F11.mp4	1	left	left	1	3.1237	20	R1.mp4	F11.mp4	1	1	up	1	1.058	23	1
5	f	28	spanish	0	vewa	vewa_fal.mp3	0	down	-0.5	R8.mp4	F12.mp4	1	right	right	1	0.4417	15	F12.mp4	R8.mp4	0	0	up	0	1.2225	5	1
5	f	28	spanish	0	vewa	vewa_ris.mp3	1	up	0.5	R5.mp4	F3.mp4	1	left	left	1	6.1546	13	R5.mp4	F3.mp4	1	1	up	1	0.9729	16	1
5	f	28	spanish	0	wemi	wemi_fal.mp3	0	down	-0.5	F9.mp4	R1.mp4	0	left	right	0	5.296	10	R1.mp4	F9.mp4	0	1	down	1	0.9552	9	0
5	f	28	spanish	0	wemi	wemi_ris.mp3	1	up	0.5	R6.mp4	F10.mp4	1	left	right	0	1.685	14	F10.mp4	R6.mp4	0	0	up	1	4.3818	0	1
5	f	28	spanish	0	yilel	yilel_fal.mp3	0	down	-0.5	R11.mp4	F10.mp4	1	right	left	0	0.0354	22	R11.mp4	F10.mp4	1	1	down	1	2.3251	3	0
5	f	28	spanish	0	yilel	yilel_ris.mp3	1	up	0.5	R10.mp4	F12.mp4	1	left	right	0	10.4502	0	F12.mp4	R10.mp4	0	0	down	0	2.7265	11	0
5	f	28	spanish	0	yina	yina_fal.mp3	0	down	-0.5	F1.mp4	R12.mp4	0	left	left	1	0.2516	21	F1.mp4	R12.mp4	1	0	down	1	1.1904	7	0
5	f	28	spanish	0	yina	yina_ris.mp3	1	up	0.5	F9.mp4	R11.mp4	0	right	left	0	1.8832	3	F9.mp4	R11.mp4	1	0	up	1	1.399	14	1
5	f	28	spanish	0	ylo	ylo_fal.mp3	0	down	-0.5	R5.mp4	F7.mp4	1	right	right	1	0.8762	4	F7.mp4	R5.mp4	0	0	up	0	1.3726	18	1
5	f	28	spanish	0	ylo	ylo_ris.mp3	1	up	0.5	R7.mp4	F4.mp4	1	left	left	1	0.1519	16	R7.mp4	F4.mp4	1	1	down	0	3.9749	12	0
6	f	19	spanish	0	ivam	ivam_fal.mp3	0	down	-0.5	R2.mp4	F3.mp4	1	right	left	0	1.0177	20	R2.mp4	F3.mp4	1	1	up	0	3.1846	4	1
6	f	19	spanish	0	ivam	ivam_ris.mp3	1	up	0.5	R12.mp4	F6.mp4	1	left	right	0	0.9856	22	F6.mp4	R12.mp4	0	0	up	1	2.9913	6	1
6	f	19	spanish	0	limer	limer_fal.mp3	0	down	-0.5	F8.mp4	R12.mp4	0	left	right	0	1.1097	21	R12.mp4	F8.mp4	0	1	down	1	3.8237	13	0
6	f	19	spanish	0	limer	limer_ris.mp3	1	up	0.5	R6.mp4	F11.mp4	1	left	left	1	1.5683	15	R6.mp4	F11.mp4	1	1	up	1	5.9371	18	1
6	f	19	spanish	0	maro	maro_fal.mp3	0	down	-0.5	R11.mp4	F1.mp4	1	right	left	0	1.3382	4	R11.mp4	F1.mp4	1	1	down	1	3.7032	19	0
6	f	19	spanish	0	maro	maro_ris.mp3	1	up	0.5	F1.mp4	R2.mp4	0	right	right	1	5.0724	9	R2.mp4	F1.mp4	0	1	up	1	4.8107	2	1
6	f	19	spanish	0	reman	reman_fal.mp3	0	down	-0.5	R7.mp4	F12.mp4	1	right	left	0	0.1419	19	R7.mp4	F12.mp4	1	1	down	1	3.0614	3	0
6	f	19	spanish	0	reman	reman_ris.mp3	1	up	0.5	F5.mp4	R10.mp4	0	right	right	1	2.4779	7	R10.mp4	F5.mp4	0	1	up	1	3.389	14	1
6	f	19	spanish	0	shinen	shinen_fal.mp3	0	down	-0.5	R6.mp4	F5.mp4	1	right	left	0	2.7873	16	R6.mp4	F5.mp4	1	1	down	1	3.296	1	0
6	f	19	spanish	0	shinen	shinen_ris.mp3	1	up	0.5	R4.mp4	F8.mp4	1	left	left	1	0.5569	14	R4.mp4	F8.mp4	1	1	up	1	6.4194	16	1
6	f	19	spanish	0	teya	teya_fal.mp3	0	down	-0.5	F9.mp4	R5.mp4	0	left	left	1	3.755	2	F9.mp4	R5.mp4	1	0	down	1	4.8486	9	0
6	f	19	spanish	0	teya	teya_ris.mp3	1	up	0.5	F2.mp4	R3.mp4	0	right	right	1	0.8346	3	R3.mp4	F2.mp4	0	1	down	0	3.6082	7	0
6	f	19	spanish	0	tila	tila_fal.mp3	0	down	-0.5	R8.mp4	F6.mp4	1	right	right	1	4.3929	23	F6.mp4	R8.mp4	0	0	down	1	3.5578	11	0
6	f	19	spanish	0	tila	tila_ris.mp3	1	up	0.5	R7.mp4	F7.mp4	1	left	right	0	3.4554	11	F7.mp4	R7.mp4	0	0	up	1	4.1626	10	1
6	f	19	spanish	0	vewa	vewa_fal.mp3	0	down	-0.5	R4.mp4	F11.mp4	1	right	right	1	0.9878	5	F11.mp4	R4.mp4	0	0	up	0	3.6633	5	1
6	f	19	spanish	0	vewa	vewa_ris.mp3	1	up	0.5	R5.mp4	F4.mp4	1	left	left	1	1.1029	18	R5.mp4	F4.mp4	1	1	down	0	2.4887	21	0
6	f	19	spanish	0	wemi	wemi_fal.mp3	0	down	-0.5	R1.mp4	F7.mp4	1	right	right	1	2.5219	17	F7.mp4	R1.mp4	0	0	up	0	1.2679	23	1
6	f	19	spanish	0	wemi	wemi_ris.mp3	1	up	0.5	R9.mp4	F9.mp4	1	left	left	1	0.8856	13	R9.mp4	F9.mp4	1	1	up	1	6.5266	17	1
6	f	19	spanish	0	yilel	yilel_fal.mp3	0	down	-0.5	F2.mp4	R3.mp4	0	left	left	1	0.1192	8	F2.mp4	R3.mp4	1	0	down	1	3.2879	0	0
6	f	19	spanish	0	yilel	yilel_ris.mp3	1	up	0.5	F3.mp4	R8.mp4	0	right	left	0	4.2754	10	F3.mp4	R8.mp4	1	0	up	1	2.5355	22	1
6	f	19	spanish	0	yina	yina_fal.mp3	0	down	-0.5	F10.mp4	R10.mp4	0	left	left	1	2.1084	0	F10.mp4	R10.mp4	1	0	down	1	7.7469	12	0
6	f	19	spanish	0	yina	yina_ris.mp3	1	up	0.5	R1.mp4	F10.mp4	1	left	left	1	4.8305	1	R1.mp4	F10.mp4	1	1	up	1	3.4311	20	1
6	f	19	spanish	0	ylo	ylo_fal.mp3	0	down	-0.5	F4.mp4	R9.mp4	0	left	left	1	0.4741	6	F4.mp4	R9.mp4	1	0	down	1	2.7827	15	0
6	f	19	spanish	0	ylo	ylo_ris.mp3	1	up	0.5	R11.mp4	F12.mp4	1	left	right	0	0.586	12	F12.mp4	R11.mp4	0	0	down	0	5.2303	8	0
7	m	28	english	0	ivam	ivam_fal.mp3	0	down	-0.5	R1.mp4	F10.mp4	1	right	left	0	0.977	18	R1.mp4	F10.mp4	1	1	down	1	0.455	14	0
7	m	28	english	0	ivam	ivam_ris.mp3	1	up	0.5	R8.mp4	F12.mp4	1	left	right	0	89.675	2	F12.mp4	R8.mp4	0	0	up	1	1.257	12	1
7	m	28	english	0	limer	limer_fal.mp3	0	down	-0.5	F7.mp4	R4.mp4	0	left	right	0	0.632	3	R4.mp4	F7.mp4	0	1	down	1	0.207	7	0
7	m	28	english	0	limer	limer_ris.mp3	1	up	0.5	R6.mp4	F9.mp4	1	left	left	1	0	4	R6.mp4	F9.mp4	1	1	down	0	0.171	21	0
7	m	28	english	0	maro	maro_fal.mp3	0	down	-0.5	F12.mp4	R11.mp4	0	left	right	0	3.703	7	R11.mp4	F12.mp4	0	1	down	1	0.123	19	0
7	m	28	english	0	maro	maro_ris.mp3	1	up	0.5	R11.mp4	F6.mp4	1	left	left	1	0.349	20	R11.mp4	F6.mp4	1	1	up	1	0.206	4	1
7	m	28	english	0	reman	reman_fal.mp3	0	down	-0.5	F5.mp4	R7.mp4	0	left	left	1	6.32	14	F5.mp4	R7.mp4	1	0	up	0	0.072	22	1
7	m	28	english	0	reman	reman_ris.mp3	1	up	0.5	F5.mp4	R7.mp4	0	right	right	1	1.337	12	R7.mp4	F5.mp4	0	1	down	0	4.473	20	0
7	m	28	english	0	shinen	shinen_fal.mp3	0	down	-0.5	F1.mp4	R8.mp4	0	left	left	1	1.596	5	F1.mp4	R8.mp4	1	0	up	0	0.307	8	1
7	m	28	english	0	shinen	shinen_ris.mp3	1	up	0.5	R2.mp4	F10.mp4	1	left	left	1	173.972	11	R2.mp4	F10.mp4	1	1	up	1	0.222	6	1
7	m	28	english	0	teya	teya_fal.mp3	0	down	-0.5	R3.mp4	F9.mp4	1	right	left	0	12.682	10	R3.mp4	F9.mp4	1	1	down	1	0.09	3	0
7	m	28	english	0	teya	teya_ris.mp3	1	up	0.5	F4.mp4	R3.mp4	0	right	left	0	0.633	17	F4.mp4	R3.mp4	1	0	up	1	0.189	9	1
7	m	28	english	0	tila	tila_fal.mp3	0	down	-0.5	F2.mp4	R2.mp4	0	left	left	1	0.584	21	F2.mp4	R2.mp4	1	0	up	0	0.373	16	1
7	m	28	english	0	tila	tila_ris.mp3	1	up	0.5	F8.mp4	R5.mp4	0	right	left	0	0.949	13	F8.mp4	R5.mp4	1	0	down	0	0.589	15	0
7	m	28	english	0	vewa	vewa_fal.mp3	0	down	-0.5	R12.mp4	F8.mp4	1	right	left	0	28.234	9	R12.mp4	F8.mp4	1	1	down	1	0.289	17	0
7	m	28	english	0	vewa	vewa_ris.mp3	1	up	0.5	R10.mp4	F11.mp4	1	left	left	1	13.918	23	R10.mp4	F11.mp4	1	1	up	1	0.038	2	1
7	m	28	english	0	wemi	wemi_fal.mp3	0	down	-0.5	F11.mp4	R10.mp4	0	left	left	1	22.867	15	F11.mp4	R10.mp4	1	0	down	1	0.405	18	0
7	m	28	english	0	wemi	wemi_ris.mp3	1	up	0.5	F3.mp4	R4.mp4	0	right	left	0	24.177	1	F3.mp4	R4.mp4	1	0	up	1	0.333	10	1
7	m	28	english	0	yilel	yilel_fal.mp3	0	down	-0.5	F3.mp4	R5.mp4	0	left	left	1	65.454	8	F3.mp4	R5.mp4	1	0	up	0	0.656	13	1
7	m	28	english	0	yilel	yilel_ris.mp3	1	up	0.5	R1.mp4	F1.mp4	1	left	left	1	16.683	22	R1.mp4	F1.mp4	1	1	up	1	0.349	1	1
7	m	28	english	0	yina	yina_fal.mp3	0	down	-0.5	F4.mp4	R9.mp4	0	left	right	0	6.164	0	R9.mp4	F4.mp4	0	1	up	0	35.224	0	1
7	m	28	english	0	yina	yina_ris.mp3	1	up	0.5	F2.mp4	R9.mp4	0	right	left	0	1.08	19	F2.mp4	R9.mp4	1	0	down	0	0.277	11	0
7	m	28	english	0	ylo	ylo_fal.mp3	0	down	-0.5	R6.mp4	F6.mp4	1	right	right	1	0.767	6	F6.mp4	R6.mp4	0	0	down	1	0.09	23	0
7	m	28	english	0	ylo	ylo_ris.mp3	1	up	0.5	F7.mp4	R12.mp4	0	right	right	1	42.862	16	R12.mp4	F7.mp4	0	1	down	0	0.156	5	0
8	m	NA	portuguese	0	ivam	ivam_fal.mp3	0	down	-0.5	R2.mp4	F4.mp4	1	right	left	0	0.8222	2	R2.mp4	F4.mp4	1	1	up	0	2.1746	11	1
8	m	NA	portuguese	0	ivam	ivam_ris.mp3	1	up	0.5	F7.mp4	R8.mp4	0	right	right	1	1.2615	22	R8.mp4	F7.mp4	0	1	down	0	2.178	8	0
8	m	NA	portuguese	0	limer	limer_fal.mp3	0	down	-0.5	F10.mp4	R1.mp4	0	left	right	0	0.5425	18	R1.mp4	F10.mp4	0	1	up	0	3.7313	12	1
8	m	NA	portuguese	0	limer	limer_ris.mp3	1	up	0.5	F10.mp4	R3.mp4	0	right	left	0	0.8246	9	F10.mp4	R3.mp4	1	0	down	0	1.8381	5	0
8	m	NA	portuguese	0	maro	maro_fal.mp3	0	down	-0.5	R5.mp4	F8.mp4	1	right	right	1	3.6363	5	F8.mp4	R5.mp4	0	0	up	0	1.7503	23	1
8	m	NA	portuguese	0	maro	maro_ris.mp3	1	up	0.5	F3.mp4	R5.mp4	0	right	left	0	3.3308	14	F3.mp4	R5.mp4	1	0	up	1	4.1213	0	1
8	m	NA	portuguese	0	reman	reman_fal.mp3	0	down	-0.5	R4.mp4	F9.mp4	1	right	left	0	2.5749	21	R4.mp4	F9.mp4	1	1	down	1	1.2528	21	0
8	m	NA	portuguese	0	reman	reman_ris.mp3	1	up	0.5	F11.mp4	R9.mp4	0	right	right	1	0.6236	15	R9.mp4	F11.mp4	0	1	up	1	1.2833	20	1
8	m	NA	portuguese	0	shinen	shinen_fal.mp3	0	down	-0.5	R3.mp4	F6.mp4	1	right	right	1	3.8839	1	F6.mp4	R3.mp4	0	0	down	1	1.3341	22	0
8	m	NA	portuguese	0	shinen	shinen_ris.mp3	1	up	0.5	F2.mp4	R7.mp4	0	right	left	0	0.2552	10	F2.mp4	R7.mp4	1	0	down	0	5.4309	17	0
8	m	NA	portuguese	0	teya	teya_fal.mp3	0	down	-0.5	R11.mp4	F3.mp4	1	right	right	1	0.9315	7	F3.mp4	R11.mp4	0	0	up	0	2.1884	9	1
8	m	NA	portuguese	0	teya	teya_ris.mp3	1	up	0.5	F1.mp4	R10.mp4	0	right	left	0	0.7011	3	F1.mp4	R10.mp4	1	0	up	1	4.5181	4	1
8	m	NA	portuguese	0	tila	tila_fal.mp3	0	down	-0.5	R8.mp4	F11.mp4	1	right	right	1	0.8883	11	F11.mp4	R8.mp4	0	0	up	0	2.3537	7	1
8	m	NA	portuguese	0	tila	tila_ris.mp3	1	up	0.5	F4.mp4	R12.mp4	0	right	left	0	1.1396	16	F4.mp4	R12.mp4	1	0	down	0	2.1101	13	0
8	m	NA	portuguese	0	vewa	vewa_fal.mp3	0	down	-0.5	R9.mp4	F12.mp4	1	right	right	1	3.6418	0	F12.mp4	R9.mp4	0	0	down	1	1.8464	1	0
8	m	NA	portuguese	0	vewa	vewa_ris.mp3	1	up	0.5	F12.mp4	R2.mp4	0	right	right	1	1.3781	6	R2.mp4	F12.mp4	0	1	up	1	4.7063	3	1
8	m	NA	portuguese	0	wemi	wemi_fal.mp3	0	down	-0.5	R6.mp4	F2.mp4	1	right	right	1	0.0377	4	F2.mp4	R6.mp4	0	0	down	1	1.247	14	0
8	m	NA	portuguese	0	wemi	wemi_ris.mp3	1	up	0.5	F9.mp4	R11.mp4	0	right	left	0	1.2578	20	F9.mp4	R11.mp4	1	0	down	0	2.2745	18	0
8	m	NA	portuguese	0	yilel	yilel_fal.mp3	0	down	-0.5	R10.mp4	F7.mp4	1	right	right	1	4.1125	13	F7.mp4	R10.mp4	0	0	down	1	2.0167	15	0
8	m	NA	portuguese	0	yilel	yilel_ris.mp3	1	up	0.5	R1.mp4	F5.mp4	1	left	right	0	7.5243	17	F5.mp4	R1.mp4	0	0	down	0	1.7711	6	0
8	m	NA	portuguese	0	yina	yina_fal.mp3	0	down	-0.5	F1.mp4	R12.mp4	0	left	right	0	0.8431	12	R12.mp4	F1.mp4	0	1	down	1	2.2269	10	0
8	m	NA	portuguese	0	yina	yina_ris.mp3	1	up	0.5	F6.mp4	R4.mp4	0	right	right	1	0.8593	19	R4.mp4	F6.mp4	0	1	up	1	2.3632	19	1
8	m	NA	portuguese	0	ylo	ylo_fal.mp3	0	down	-0.5	F5.mp4	R7.mp4	0	left	right	0	2.8266	8	R7.mp4	F5.mp4	0	1	up	0	1.6624	2	1
8	m	NA	portuguese	0	ylo	ylo_ris.mp3	1	up	0.5	F8.mp4	R6.mp4	0	right	left	0	2.3727	23	F8.mp4	R6.mp4	1	0	down	0	1.5527	16	0
9	f	23	portuguese	0	ivam	ivam_fal.mp3	0	down	-0.5	R4.mp4	F3.mp4	1	right	right	1	10.9914	7	F3.mp4	R4.mp4	0	0	up	0	3.0423	4	1
9	f	23	portuguese	0	ivam	ivam_ris.mp3	1	up	0.5	R5.mp4	F4.mp4	1	left	right	0	4.0273	20	F4.mp4	R5.mp4	0	0	up	1	1.4582	19	1
9	f	23	portuguese	0	limer	limer_fal.mp3	0	down	-0.5	R8.mp4	F10.mp4	1	right	right	1	1.0704	17	F10.mp4	R8.mp4	0	0	down	1	3.478	2	0
9	f	23	portuguese	0	limer	limer_ris.mp3	1	up	0.5	R8.mp4	F11.mp4	1	left	right	0	0.845	19	F11.mp4	R8.mp4	0	0	up	1	2.0635	21	1
9	f	23	portuguese	0	maro	maro_fal.mp3	0	down	-0.5	F2.mp4	R1.mp4	0	left	right	0	1.8205	10	R1.mp4	F2.mp4	0	1	down	1	1.4108	6	0
9	f	23	portuguese	0	maro	maro_ris.mp3	1	up	0.5	R2.mp4	F3.mp4	1	left	right	0	5.3954	12	F3.mp4	R2.mp4	0	0	up	1	1.1774	23	1
9	f	23	portuguese	0	reman	reman_fal.mp3	0	down	-0.5	F12.mp4	R10.mp4	0	left	left	1	0.2501	2	F12.mp4	R10.mp4	1	0	down	1	1.1339	13	0
9	f	23	portuguese	0	reman	reman_ris.mp3	1	up	0.5	R4.mp4	F7.mp4	1	left	left	1	1.2827	22	R4.mp4	F7.mp4	1	1	up	1	1.3937	11	1
9	f	23	portuguese	0	shinen	shinen_fal.mp3	0	down	-0.5	F11.mp4	R11.mp4	0	left	right	0	0.7411	21	R11.mp4	F11.mp4	0	1	down	1	1.3566	17	0
9	f	23	portuguese	0	shinen	shinen_ris.mp3	1	up	0.5	F12.mp4	R10.mp4	0	right	left	0	0.8416	13	F12.mp4	R10.mp4	1	0	up	1	1.0627	22	1
9	f	23	portuguese	0	teya	teya_fal.mp3	0	down	-0.5	F9.mp4	R9.mp4	0	left	right	0	2.5036	9	R9.mp4	F9.mp4	0	1	up	0	2.0283	14	1
9	f	23	portuguese	0	teya	teya_ris.mp3	1	up	0.5	F6.mp4	R12.mp4	0	right	left	0	1.8564	3	F6.mp4	R12.mp4	1	0	up	1	1.1041	10	1
9	f	23	portuguese	0	tila	tila_fal.mp3	0	down	-0.5	F5.mp4	R12.mp4	0	left	left	1	0.086	14	F5.mp4	R12.mp4	1	0	up	0	2.5128	7	1
9	f	23	portuguese	0	tila	tila_ris.mp3	1	up	0.5	F10.mp4	R1.mp4	0	right	left	0	1.8915	5	F10.mp4	R1.mp4	1	0	up	1	1.0082	20	1
9	f	23	portuguese	0	vewa	vewa_fal.mp3	0	down	-0.5	R5.mp4	F8.mp4	1	right	left	0	1.3729	1	R5.mp4	F8.mp4	1	1	down	1	1.4798	9	0
9	f	23	portuguese	0	vewa	vewa_ris.mp3	1	up	0.5	R6.mp4	F9.mp4	1	left	left	1	1.5403	6	R6.mp4	F9.mp4	1	1	up	1	1.2099	16	1
9	f	23	portuguese	0	wemi	wemi_fal.mp3	0	down	-0.5	R6.mp4	F4.mp4	1	right	right	1	1.6042	16	F4.mp4	R6.mp4	0	0	up	0	3.0758	5	1
9	f	23	portuguese	0	wemi	wemi_ris.mp3	1	up	0.5	R3.mp4	F5.mp4	1	left	left	1	0.5814	18	R3.mp4	F5.mp4	1	1	down	0	1.8095	8	0
9	f	23	portuguese	0	yilel	yilel_fal.mp3	0	down	-0.5	F1.mp4	R3.mp4	0	left	left	1	1.5623	0	F1.mp4	R3.mp4	1	0	down	1	2.783	15	0
9	f	23	portuguese	0	yilel	yilel_ris.mp3	1	up	0.5	F1.mp4	R9.mp4	0	right	right	1	3.1546	15	R9.mp4	F1.mp4	0	1	up	1	1.1553	12	1
9	f	23	portuguese	0	yina	yina_fal.mp3	0	down	-0.5	R7.mp4	F7.mp4	1	right	right	1	5.4055	23	F7.mp4	R7.mp4	0	0	up	0	2.3225	3	1
9	f	23	portuguese	0	yina	yina_ris.mp3	1	up	0.5	F2.mp4	R7.mp4	0	right	left	0	1.007	8	F2.mp4	R7.mp4	1	0	down	0	2.1663	1	0
9	f	23	portuguese	0	ylo	ylo_fal.mp3	0	down	-0.5	R2.mp4	F6.mp4	1	right	left	0	0.2396	4	R2.mp4	F6.mp4	1	1	up	0	4.3735	0	1
9	f	23	portuguese	0	ylo	ylo_ris.mp3	1	up	0.5	F8.mp4	R11.mp4	0	right	left	0	0.9744	11	F8.mp4	R11.mp4	1	0	up	1	0.9558	18	1
10	m	19	portuguese	0	ivam	ivam_fal.mp3	0	down	-0.5	R2.mp4	F8.mp4	1	right	left	0	8.1169	17	R2.mp4	F8.mp4	1	1	up	0	1.0629	4	1
10	m	19	portuguese	0	ivam	ivam_ris.mp3	1	up	0.5	F8.mp4	R12.mp4	0	right	right	1	11.5244	23	R12.mp4	F8.mp4	0	1	up	1	1.8738	11	1
10	m	19	portuguese	0	limer	limer_fal.mp3	0	down	-0.5	F11.mp4	R8.mp4	0	left	left	1	5.3459	5	F11.mp4	R8.mp4	1	0	up	0	1.7687	20	1
10	m	19	portuguese	0	limer	limer_ris.mp3	1	up	0.5	F5.mp4	R11.mp4	0	right	right	1	0.4407	11	R11.mp4	F5.mp4	0	1	down	0	1.3011	1	0
10	m	19	portuguese	0	maro	maro_fal.mp3	0	down	-0.5	F10.mp4	R9.mp4	0	left	left	1	7.5154	0	F10.mp4	R9.mp4	1	0	down	1	1.3601	12	0
10	m	19	portuguese	0	maro	maro_ris.mp3	1	up	0.5	F10.mp4	R4.mp4	0	right	left	0	0.2185	10	F10.mp4	R4.mp4	1	0	down	0	1.7958	8	0
10	m	19	portuguese	0	reman	reman_fal.mp3	0	down	-0.5	F3.mp4	R5.mp4	0	left	left	1	10.0998	19	F3.mp4	R5.mp4	1	0	up	0	1.5613	3	1
10	m	19	portuguese	0	reman	reman_ris.mp3	1	up	0.5	R10.mp4	F4.mp4	1	left	right	0	0.4802	8	F4.mp4	R10.mp4	0	0	up	1	1.7124	22	1
10	m	19	portuguese	0	shinen	shinen_fal.mp3	0	down	-0.5	R10.mp4	F1.mp4	1	right	right	1	2.2717	2	F1.mp4	R10.mp4	0	0	down	1	3.8919	15	0
10	m	19	portuguese	0	shinen	shinen_ris.mp3	1	up	0.5	F3.mp4	R7.mp4	0	right	left	0	352.0911	4	F3.mp4	R7.mp4	1	0	up	1	1.7805	17	1
10	m	19	portuguese	0	teya	teya_fal.mp3	0	down	-0.5	R6.mp4	F4.mp4	1	right	right	1	0.5064	1	F4.mp4	R6.mp4	0	0	up	0	1.3821	5	1
10	m	19	portuguese	0	teya	teya_ris.mp3	1	up	0.5	F2.mp4	R3.mp4	0	right	left	0	11.3935	12	F2.mp4	R3.mp4	1	0	up	1	2.5497	16	1
10	m	19	portuguese	0	tila	tila_fal.mp3	0	down	-0.5	F7.mp4	R7.mp4	0	left	left	1	0.4263	9	F7.mp4	R7.mp4	1	0	down	1	1.9027	19	0
10	m	19	portuguese	0	tila	tila_ris.mp3	1	up	0.5	F7.mp4	R8.mp4	0	right	right	1	34.9706	20	R8.mp4	F7.mp4	0	1	up	1	1.0508	23	1
10	m	19	portuguese	0	vewa	vewa_fal.mp3	0	down	-0.5	F12.mp4	R4.mp4	0	left	left	1	11.1439	13	F12.mp4	R4.mp4	1	0	down	1	2.8914	18	0
10	m	19	portuguese	0	vewa	vewa_ris.mp3	1	up	0.5	F6.mp4	R2.mp4	0	right	right	1	13.0862	21	R2.mp4	F6.mp4	0	1	down	0	1.2105	21	0
10	m	19	portuguese	0	wemi	wemi_fal.mp3	0	down	-0.5	R11.mp4	F6.mp4	1	right	right	1	13.4131	15	F6.mp4	R11.mp4	0	0	up	0	2.143	14	1
10	m	19	portuguese	0	wemi	wemi_ris.mp3	1	up	0.5	F1.mp4	R9.mp4	0	right	left	0	0.1697	7	F1.mp4	R9.mp4	1	0	down	0	1.044	6	0
10	m	19	portuguese	0	yilel	yilel_fal.mp3	0	down	-0.5	F5.mp4	R1.mp4	0	left	left	1	38.0485	18	F5.mp4	R1.mp4	1	0	up	0	1.2266	13	1
10	m	19	portuguese	0	yilel	yilel_ris.mp3	1	up	0.5	R1.mp4	F11.mp4	1	left	left	1	4.6396	22	R1.mp4	F11.mp4	1	1	down	0	1.1638	2	0
10	m	19	portuguese	0	yina	yina_fal.mp3	0	down	-0.5	F2.mp4	R12.mp4	0	left	right	0	24.8984	16	R12.mp4	F2.mp4	0	1	up	0	6.4027	0	1
10	m	19	portuguese	0	yina	yina_ris.mp3	1	up	0.5	R5.mp4	F12.mp4	1	left	right	0	13.8052	14	F12.mp4	R5.mp4	0	0	up	1	2.2759	9	1
10	m	19	portuguese	0	ylo	ylo_fal.mp3	0	down	-0.5	F9.mp4	R3.mp4	0	left	left	1	0.6373	3	F9.mp4	R3.mp4	1	0	down	1	3.241	7	0
10	m	19	portuguese	0	ylo	ylo_ris.mp3	1	up	0.5	F9.mp4	R6.mp4	0	right	left	0	0.9247	6	F9.mp4	R6.mp4	1	0	down	0	1.1257	10	0
11	f	27	portuguese	0	ivam	ivam_fal.mp3	0	down	-0.5	R2.mp4	F7.mp4	1	right	right	1	0.5277	22	F7.mp4	R2.mp4	0	0	down	1	1.2192	1	0
11	f	27	portuguese	0	ivam	ivam_ris.mp3	1	up	0.5	F6.mp4	R3.mp4	0	right	right	1	0.1535	13	R3.mp4	F6.mp4	0	1	up	1	1.6401	23	1
11	f	27	portuguese	0	limer	limer_fal.mp3	0	down	-0.5	F11.mp4	R9.mp4	0	left	left	1	0.5853	15	F11.mp4	R9.mp4	1	0	down	1	1.7282	22	0
11	f	27	portuguese	0	limer	limer_ris.mp3	1	up	0.5	R2.mp4	F5.mp4	1	left	left	1	4.1909	11	R2.mp4	F5.mp4	1	1	up	1	4.7126	0	1
11	f	27	portuguese	0	maro	maro_fal.mp3	0	down	-0.5	F12.mp4	R4.mp4	0	left	left	1	1.6023	3	F12.mp4	R4.mp4	1	0	up	0	1.2482	17	1
11	f	27	portuguese	0	maro	maro_ris.mp3	1	up	0.5	F10.mp4	R12.mp4	0	right	right	1	0.2062	2	R12.mp4	F10.mp4	0	1	up	1	1.5932	12	1
11	f	27	portuguese	0	reman	reman_fal.mp3	0	down	-0.5	F8.mp4	R3.mp4	0	left	left	1	4.1445	6	F8.mp4	R3.mp4	1	0	down	1	1.0043	8	0
11	f	27	portuguese	0	reman	reman_ris.mp3	1	up	0.5	R9.mp4	F7.mp4	1	left	right	0	3.5513	8	F7.mp4	R9.mp4	0	0	up	1	1.3386	6	1
11	f	27	portuguese	0	shinen	shinen_fal.mp3	0	down	-0.5	R8.mp4	F1.mp4	1	right	right	1	4.0005	10	F1.mp4	R8.mp4	0	0	up	0	1.5376	20	1
11	f	27	portuguese	0	shinen	shinen_ris.mp3	1	up	0.5	R7.mp4	F9.mp4	1	left	right	0	0.7741	0	F9.mp4	R7.mp4	0	0	down	0	1.2595	7	0
11	f	27	portuguese	0	teya	teya_fal.mp3	0	down	-0.5	R5.mp4	F6.mp4	1	right	left	0	0.7197	12	R5.mp4	F6.mp4	1	1	up	0	0.9319	16	1
11	f	27	portuguese	0	teya	teya_ris.mp3	1	up	0.5	F12.mp4	R11.mp4	0	right	left	0	4.6114	1	F12.mp4	R11.mp4	1	0	up	1	1.2557	5	1
11	f	27	portuguese	0	tila	tila_fal.mp3	0	down	-0.5	R1.mp4	F5.mp4	1	right	right	1	4.2801	14	F5.mp4	R1.mp4	0	0	down	1	1.1661	19	0
11	f	27	portuguese	0	tila	tila_ris.mp3	1	up	0.5	R5.mp4	F11.mp4	1	left	left	1	3.5634	20	R5.mp4	F11.mp4	1	1	up	1	0.7981	10	1
11	f	27	portuguese	0	vewa	vewa_fal.mp3	0	down	-0.5	F3.mp4	R12.mp4	0	left	left	1	0.747	19	F3.mp4	R12.mp4	1	0	up	0	1.1298	3	1
11	f	27	portuguese	0	vewa	vewa_ris.mp3	1	up	0.5	F2.mp4	R4.mp4	0	right	left	0	0.0171	5	F2.mp4	R4.mp4	1	0	up	1	0.9736	13	1
11	f	27	portuguese	0	wemi	wemi_fal.mp3	0	down	-0.5	R7.mp4	F4.mp4	1	right	right	1	0.4246	7	F4.mp4	R7.mp4	0	0	down	1	1.037	9	0
11	f	27	portuguese	0	wemi	wemi_ris.mp3	1	up	0.5	F3.mp4	R6.mp4	0	right	right	1	0.5841	21	R6.mp4	F3.mp4	0	1	down	0	3.6539	2	0
11	f	27	portuguese	0	yilel	yilel_fal.mp3	0	down	-0.5	R6.mp4	F2.mp4	1	right	right	1	0.3168	23	F2.mp4	R6.mp4	0	0	up	0	1.1099	18	1
11	f	27	portuguese	0	yilel	yilel_ris.mp3	1	up	0.5	R8.mp4	F4.mp4	1	left	left	1	0.2959	4	R8.mp4	F4.mp4	1	1	up	1	0.9968	14	1
11	f	27	portuguese	0	yina	yina_fal.mp3	0	down	-0.5	R11.mp4	F10.mp4	1	right	left	0	0.6621	17	R11.mp4	F10.mp4	1	1	up	0	1.1414	11	1
11	f	27	portuguese	0	yina	yina_ris.mp3	1	up	0.5	R1.mp4	F8.mp4	1	left	right	0	0.7264	18	F8.mp4	R1.mp4	0	0	up	1	0.8915	4	1
11	f	27	portuguese	0	ylo	ylo_fal.mp3	0	down	-0.5	R10.mp4	F9.mp4	1	right	left	0	0.7356	9	R10.mp4	F9.mp4	1	1	down	1	2.0208	15	0
11	f	27	portuguese	0	ylo	ylo_ris.mp3	1	up	0.5	R10.mp4	F1.mp4	1	left	left	1	0.8348	16	R10.mp4	F1.mp4	1	1	down	0	0.9207	21	0
12	f	19	portuguese	0	ivam	ivam_fal.mp3	0	down	-0.5	R6.mp4	F7.mp4	1	right	left	0	4.8718	5	R6.mp4	F7.mp4	1	1	down	1	1.4173	7	0
12	f	19	portuguese	0	ivam	ivam_ris.mp3	1	up	0.5	F8.mp4	R7.mp4	0	right	right	1	1.0786	10	R7.mp4	F8.mp4	0	1	down	0	0.9179	13	0
12	f	19	portuguese	0	limer	limer_fal.mp3	0	down	-0.5	R1.mp4	F10.mp4	1	right	left	0	1.072	4	R1.mp4	F10.mp4	1	1	up	0	0.9867	14	1
12	f	19	portuguese	0	limer	limer_ris.mp3	1	up	0.5	R5.mp4	F4.mp4	1	left	right	0	6.2091	9	F4.mp4	R5.mp4	0	0	up	1	1.8604	1	1
12	f	19	portuguese	0	maro	maro_fal.mp3	0	down	-0.5	R7.mp4	F8.mp4	1	right	right	1	1.0077	19	F8.mp4	R7.mp4	0	0	down	1	1.463	8	0
12	f	19	portuguese	0	maro	maro_ris.mp3	1	up	0.5	F9.mp4	R6.mp4	0	right	left	0	0.8515	8	F9.mp4	R6.mp4	1	0	up	1	2.824	0	1
12	f	19	portuguese	0	reman	reman_fal.mp3	0	down	-0.5	R8.mp4	F9.mp4	1	right	left	0	1.0829	17	R8.mp4	F9.mp4	1	1	down	1	1.2756	4	0
12	f	19	portuguese	0	reman	reman_ris.mp3	1	up	0.5	R11.mp4	F1.mp4	1	left	right	0	1.3652	12	F1.mp4	R11.mp4	0	0	up	1	1.4001	3	1
12	f	19	portuguese	0	shinen	shinen_fal.mp3	0	down	-0.5	R5.mp4	F11.mp4	1	right	right	1	1.0815	15	F11.mp4	R5.mp4	0	0	down	1	1.2755	21	0
12	f	19	portuguese	0	shinen	shinen_ris.mp3	1	up	0.5	F3.mp4	R9.mp4	0	right	right	1	0.8987	7	R9.mp4	F3.mp4	0	1	up	1	1.4422	22	1
12	f	19	portuguese	0	teya	teya_fal.mp3	0	down	-0.5	R12.mp4	F3.mp4	1	right	right	1	0.3186	1	F3.mp4	R12.mp4	0	0	down	1	1.0627	11	0
12	f	19	portuguese	0	teya	teya_ris.mp3	1	up	0.5	F12.mp4	R8.mp4	0	right	right	1	1.4882	11	R8.mp4	F12.mp4	0	1	down	0	1.3724	2	0
12	f	19	portuguese	0	tila	tila_fal.mp3	0	down	-0.5	F4.mp4	R4.mp4	0	left	left	1	4.838	2	F4.mp4	R4.mp4	1	0	down	1	2.1884	5	0
12	f	19	portuguese	0	tila	tila_ris.mp3	1	up	0.5	R12.mp4	F2.mp4	1	left	right	0	3.3677	21	F2.mp4	R12.mp4	0	0	up	1	1.2924	19	1
12	f	19	portuguese	0	vewa	vewa_fal.mp3	0	down	-0.5	F6.mp4	R11.mp4	0	left	right	0	5.3108	23	R11.mp4	F6.mp4	0	1	down	1	1.074	16	0
12	f	19	portuguese	0	vewa	vewa_ris.mp3	1	up	0.5	F11.mp4	R4.mp4	0	right	right	1	0.6181	20	R4.mp4	F11.mp4	0	1	up	1	1.5609	15	1
12	f	19	portuguese	0	wemi	wemi_fal.mp3	0	down	-0.5	F5.mp4	R2.mp4	0	left	left	1	0.263	22	F5.mp4	R2.mp4	1	0	down	1	1.3145	17	0
12	f	19	portuguese	0	wemi	wemi_ris.mp3	1	up	0.5	R2.mp4	F10.mp4	1	left	right	0	2.4653	6	F10.mp4	R2.mp4	0	0	up	1	1.4421	12	1
12	f	19	portuguese	0	yilel	yilel_fal.mp3	0	down	-0.5	R3.mp4	F2.mp4	1	right	right	1	0.5622	0	F2.mp4	R3.mp4	0	0	down	1	1.2347	10	0
12	f	19	portuguese	0	yilel	yilel_ris.mp3	1	up	0.5	R3.mp4	F7.mp4	1	left	left	1	1.3021	3	R3.mp4	F7.mp4	1	1	up	1	1.1548	18	1
12	f	19	portuguese	0	yina	yina_fal.mp3	0	down	-0.5	R10.mp4	F12.mp4	1	right	right	1	5.8023	14	F12.mp4	R10.mp4	0	0	down	1	1.497	6	0
12	f	19	portuguese	0	yina	yina_ris.mp3	1	up	0.5	R1.mp4	F6.mp4	1	left	left	1	0.7357	18	R1.mp4	F6.mp4	1	1	up	1	1.1646	9	1
12	f	19	portuguese	0	ylo	ylo_fal.mp3	0	down	-0.5	R9.mp4	F1.mp4	1	right	left	0	3.4082	16	R9.mp4	F1.mp4	1	1	down	1	0.9432	20	0
12	f	19	portuguese	0	ylo	ylo_ris.mp3	1	up	0.5	R10.mp4	F5.mp4	1	left	left	1	3.9365	13	R10.mp4	F5.mp4	1	1	down	0	1.2356	23	0
13	f	5	unknown	0	ivam	ivam_fal.mp3	0	down	-0.5	F5.mp4	R2.mp4	0	left	left	1	0.9668	13	F5.mp4	R2.mp4	1	0	down	1	7.2312	0	0
13	f	5	unknown	0	ivam	ivam_ris.mp3	1	up	0.5	F3.mp4	R11.mp4	0	right	left	0	0.9673	4	F3.mp4	R11.mp4	1	0	up	1	1.1058	21	1
13	f	5	unknown	0	limer	limer_fal.mp3	0	down	-0.5	R10.mp4	F7.mp4	1	right	right	1	0.6737	22	F7.mp4	R10.mp4	0	0	down	1	0.9607	14	0
13	f	5	unknown	0	limer	limer_ris.mp3	1	up	0.5	R3.mp4	F8.mp4	1	left	left	1	1.6	14	R3.mp4	F8.mp4	1	1	down	0	1.0219	16	0
13	f	5	unknown	0	maro	maro_fal.mp3	0	down	-0.5	F3.mp4	R11.mp4	0	left	right	0	0.8949	19	R11.mp4	F3.mp4	0	1	down	1	1.0639	11	0
13	f	5	unknown	0	maro	maro_ris.mp3	1	up	0.5	F12.mp4	R1.mp4	0	right	right	1	0.587	6	R1.mp4	F12.mp4	0	1	down	0	1.2715	12	0
13	f	5	unknown	0	reman	reman_fal.mp3	0	down	-0.5	F6.mp4	R3.mp4	0	left	left	1	0.8339	3	F6.mp4	R3.mp4	1	0	down	1	1.1231	13	0
13	f	5	unknown	0	reman	reman_ris.mp3	1	up	0.5	R2.mp4	F10.mp4	1	left	right	0	0.5529	17	F10.mp4	R2.mp4	0	0	up	1	1.0197	10	1
13	f	5	unknown	0	shinen	shinen_fal.mp3	0	down	-0.5	R8.mp4	F9.mp4	1	right	left	0	0.0113	1	R8.mp4	F9.mp4	1	1	down	1	1.6208	23	0
13	f	5	unknown	0	shinen	shinen_ris.mp3	1	up	0.5	F11.mp4	R10.mp4	0	right	left	0	1.1506	5	F11.mp4	R10.mp4	1	0	up	1	1.7769	8	1
13	f	5	unknown	0	teya	teya_fal.mp3	0	down	-0.5	F8.mp4	R12.mp4	0	left	right	0	0.5994	12	R12.mp4	F8.mp4	0	1	down	1	1.3557	18	0
13	f	5	unknown	0	teya	teya_ris.mp3	1	up	0.5	R7.mp4	F2.mp4	1	left	left	1	1.2718	11	R7.mp4	F2.mp4	1	1	up	1	1.1813	15	1
13	f	5	unknown	0	tila	tila_fal.mp3	0	down	-0.5	R6.mp4	F10.mp4	1	right	left	0	0.3713	0	R6.mp4	F10.mp4	1	1	up	0	1.9054	3	1
13	f	5	unknown	0	tila	tila_ris.mp3	1	up	0.5	R8.mp4	F4.mp4	1	left	left	1	0.6773	15	R8.mp4	F4.mp4	1	1	up	1	2.2859	1	1
13	f	5	unknown	0	vewa	vewa_fal.mp3	0	down	-0.5	F1.mp4	R7.mp4	0	left	right	0	1.5663	10	R7.mp4	F1.mp4	0	1	down	1	1.0873	7	0
13	f	5	unknown	0	vewa	vewa_ris.mp3	1	up	0.5	R5.mp4	F7.mp4	1	left	right	0	0.858	2	F7.mp4	R5.mp4	0	0	up	1	1.6567	5	1
13	f	5	unknown	0	wemi	wemi_fal.mp3	0	down	-0.5	F2.mp4	R5.mp4	0	left	right	0	1.2136	16	R5.mp4	F2.mp4	0	1	down	1	1.3959	9	0
13	f	5	unknown	0	wemi	wemi_ris.mp3	1	up	0.5	F1.mp4	R12.mp4	0	right	right	1	0.8677	21	R12.mp4	F1.mp4	0	1	down	0	0.8389	17	0
13	f	5	unknown	0	yilel	yilel_fal.mp3	0	down	-0.5	R4.mp4	F4.mp4	1	right	left	0	1.2841	8	R4.mp4	F4.mp4	1	1	down	1	1.5794	4	0
13	f	5	unknown	0	yilel	yilel_ris.mp3	1	up	0.5	F6.mp4	R4.mp4	0	right	right	1	0.7877	9	R4.mp4	F6.mp4	0	1	up	1	1.1388	19	1
13	f	5	unknown	0	yina	yina_fal.mp3	0	down	-0.5	F12.mp4	R9.mp4	0	left	left	1	1.1512	18	F12.mp4	R9.mp4	1	0	down	1	1.7048	2	0
13	f	5	unknown	0	yina	yina_ris.mp3	1	up	0.5	R9.mp4	F9.mp4	1	left	right	0	1.1152	7	F9.mp4	R9.mp4	0	0	down	0	1.8876	22	0
13	f	5	unknown	0	ylo	ylo_fal.mp3	0	down	-0.5	F11.mp4	R1.mp4	0	left	right	0	1.1	23	R1.mp4	F11.mp4	0	1	down	1	1.127	20	0
13	f	5	unknown	0	ylo	ylo_ris.mp3	1	up	0.5	R6.mp4	F5.mp4	1	left	left	1	0.3341	20	R6.mp4	F5.mp4	1	1	up	1	1.6589	6	1
14	f	51	english	1	ivam	ivam_fal.mp3	0	down	-0.5	R1.mp4	F3.mp4	1	right	left	0	4.3052	14	R1.mp4	F3.mp4	1	1	down	1	1.3354	6	0
14	f	51	english	1	ivam	ivam_ris.mp3	1	up	0.5	R4.mp4	F3.mp4	1	left	left	1	0.7459	12	R4.mp4	F3.mp4	1	1	up	1	1.0546	15	1
14	f	51	english	1	limer	limer_fal.mp3	0	down	-0.5	F7.mp4	R5.mp4	0	left	right	0	1.2998	4	R5.mp4	F7.mp4	0	1	down	1	0.9575	19	0
14	f	51	english	1	limer	limer_ris.mp3	1	up	0.5	R5.mp4	F8.mp4	1	left	left	1	5.3239	17	R5.mp4	F8.mp4	1	1	up	1	2.4394	3	1
14	f	51	english	1	maro	maro_fal.mp3	0	down	-0.5	R11.mp4	F11.mp4	1	right	left	0	12.3971	10	R11.mp4	F11.mp4	1	1	down	1	1.5164	8	0
14	f	51	english	1	maro	maro_ris.mp3	1	up	0.5	F7.mp4	R11.mp4	0	right	left	0	0.931	19	F7.mp4	R11.mp4	1	0	up	1	1.1189	23	1
14	f	51	english	1	reman	reman_fal.mp3	0	down	-0.5	R12.mp4	F9.mp4	1	right	left	0	0.827	6	R12.mp4	F9.mp4	1	1	down	1	1.018	16	0
14	f	51	english	1	reman	reman_ris.mp3	1	up	0.5	F4.mp4	R2.mp4	0	right	right	1	0.7339	7	R2.mp4	F4.mp4	0	1	up	1	1.0845	10	1
14	f	51	english	1	shinen	shinen_fal.mp3	0	down	-0.5	R9.mp4	F2.mp4	1	right	left	0	0.3359	18	R9.mp4	F2.mp4	1	1	down	1	1.2414	1	0
14	f	51	english	1	shinen	shinen_ris.mp3	1	up	0.5	R3.mp4	F11.mp4	1	left	right	0	0.1359	2	F11.mp4	R3.mp4	0	0	up	1	1.7174	0	1
14	f	51	english	1	teya	teya_fal.mp3	0	down	-0.5	F8.mp4	R10.mp4	0	left	right	0	5.3462	22	R10.mp4	F8.mp4	0	1	down	1	2.1533	21	0
14	f	51	english	1	teya	teya_ris.mp3	1	up	0.5	R7.mp4	F12.mp4	1	left	left	1	1.6599	23	R7.mp4	F12.mp4	1	1	up	1	1.3287	4	1
14	f	51	english	1	tila	tila_fal.mp3	0	down	-0.5	F4.mp4	R7.mp4	0	left	right	0	1.4185	16	R7.mp4	F4.mp4	0	1	down	1	1.0171	22	0
14	f	51	english	1	tila	tila_ris.mp3	1	up	0.5	R1.mp4	F2.mp4	1	left	right	0	2.4569	9	F2.mp4	R1.mp4	0	0	up	1	1.0427	7	1
14	f	51	english	1	vewa	vewa_fal.mp3	0	down	-0.5	F6.mp4	R3.mp4	0	left	left	1	0.2188	15	F6.mp4	R3.mp4	1	0	down	1	1.0994	5	0
14	f	51	english	1	vewa	vewa_ris.mp3	1	up	0.5	F5.mp4	R8.mp4	0	right	left	0	4.7876	21	F5.mp4	R8.mp4	1	0	up	1	1.0493	17	1
14	f	51	english	1	wemi	wemi_fal.mp3	0	down	-0.5	R6.mp4	F1.mp4	1	right	right	1	3.4326	3	F1.mp4	R6.mp4	0	0	down	1	1.2643	9	0
14	f	51	english	1	wemi	wemi_ris.mp3	1	up	0.5	R9.mp4	F6.mp4	1	left	right	0	2.4397	13	F6.mp4	R9.mp4	0	0	up	1	1.0865	12	1
14	f	51	english	1	yilel	yilel_fal.mp3	0	down	-0.5	F5.mp4	R2.mp4	0	left	right	0	0.3049	20	R2.mp4	F5.mp4	0	1	down	1	1.0674	11	0
14	f	51	english	1	yilel	yilel_ris.mp3	1	up	0.5	R12.mp4	F10.mp4	1	left	left	1	7.7251	8	R12.mp4	F10.mp4	1	1	up	1	1.1895	13	1
14	f	51	english	1	yina	yina_fal.mp3	0	down	-0.5	R8.mp4	F12.mp4	1	right	right	1	1.8734	5	F12.mp4	R8.mp4	0	0	down	1	1.234	20	0
14	f	51	english	1	yina	yina_ris.mp3	1	up	0.5	R10.mp4	F9.mp4	1	left	right	0	3.0388	0	F9.mp4	R10.mp4	0	0	up	1	2.2182	18	1
14	f	51	english	1	ylo	ylo_fal.mp3	0	down	-0.5	R4.mp4	F10.mp4	1	right	right	1	1.2163	1	F10.mp4	R4.mp4	0	0	down	1	1.2158	14	0
14	f	51	english	1	ylo	ylo_ris.mp3	1	up	0.5	R6.mp4	F1.mp4	1	left	left	1	0.6368	11	R6.mp4	F1.mp4	1	1	up	1	1.3003	2	1
15	m	23	portuguese	0	ivam	ivam_fal.mp3	0	down	-0.5	R10.mp4	F4.mp4	1	right	left	0	0.7031	5	R10.mp4	F4.mp4	1	1	up	0	1.3784	0	1
15	m	23	portuguese	0	ivam	ivam_ris.mp3	1	up	0.5	R10.mp4	F2.mp4	1	left	left	1	2.1037	0	R10.mp4	F2.mp4	1	1	down	0	1.2192	20	0
15	m	23	portuguese	0	limer	limer_fal.mp3	0	down	-0.5	F6.mp4	R8.mp4	0	left	left	1	0.1529	16	F6.mp4	R8.mp4	1	0	down	1	1.0854	1	0
15	m	23	portuguese	0	limer	limer_ris.mp3	1	up	0.5	R6.mp4	F1.mp4	1	left	right	0	0.3088	14	F1.mp4	R6.mp4	0	0	down	0	0.9978	23	0
15	m	23	portuguese	0	maro	maro_fal.mp3	0	down	-0.5	R12.mp4	F1.mp4	1	right	left	0	0.0155	20	R12.mp4	F1.mp4	1	1	down	1	0.9806	14	0
15	m	23	portuguese	0	maro	maro_ris.mp3	1	up	0.5	R5.mp4	F6.mp4	1	left	left	1	0.2007	18	R5.mp4	F6.mp4	1	1	up	1	1.208	7	1
15	m	23	portuguese	0	reman	reman_fal.mp3	0	down	-0.5	F5.mp4	R9.mp4	0	left	left	1	0.1656	17	F5.mp4	R9.mp4	1	0	down	1	1.063	4	0
15	m	23	portuguese	0	reman	reman_ris.mp3	1	up	0.5	R7.mp4	F7.mp4	1	left	left	1	0.049	15	R7.mp4	F7.mp4	1	1	down	0	1.5754	13	0
15	m	23	portuguese	0	shinen	shinen_fal.mp3	0	down	-0.5	R3.mp4	F8.mp4	1	right	right	1	0.9188	21	F8.mp4	R3.mp4	0	0	down	1	1.5975	8	0
15	m	23	portuguese	0	shinen	shinen_ris.mp3	1	up	0.5	F4.mp4	R12.mp4	0	right	right	1	2.9357	13	R12.mp4	F4.mp4	0	1	down	0	1.0141	12	0
15	m	23	portuguese	0	teya	teya_fal.mp3	0	down	-0.5	R2.mp4	F2.mp4	1	right	right	1	0.6148	11	F2.mp4	R2.mp4	0	0	up	0	0.4307	18	1
15	m	23	portuguese	0	teya	teya_ris.mp3	1	up	0.5	F12.mp4	R4.mp4	0	right	left	0	0.6643	4	F12.mp4	R4.mp4	1	0	down	0	0.9832	5	0
15	m	23	portuguese	0	tila	tila_fal.mp3	0	down	-0.5	R4.mp4	F10.mp4	1	right	left	0	0.6872	10	R4.mp4	F10.mp4	1	1	down	1	2.0134	9	0
15	m	23	portuguese	0	tila	tila_ris.mp3	1	up	0.5	F8.mp4	R3.mp4	0	right	left	0	4.0855	1	F8.mp4	R3.mp4	1	0	down	0	0.9845	17	0
15	m	23	portuguese	0	vewa	vewa_fal.mp3	0	down	-0.5	F12.mp4	R6.mp4	0	left	left	1	0.412	7	F12.mp4	R6.mp4	1	0	down	1	1.0582	22	0
15	m	23	portuguese	0	vewa	vewa_ris.mp3	1	up	0.5	F5.mp4	R8.mp4	0	right	left	0	0.3586	12	F5.mp4	R8.mp4	1	0	up	1	1.1051	21	1
15	m	23	portuguese	0	wemi	wemi_fal.mp3	0	down	-0.5	R11.mp4	F9.mp4	1	right	left	0	2.2393	22	R11.mp4	F9.mp4	1	1	down	1	1.2162	16	0
15	m	23	portuguese	0	wemi	wemi_ris.mp3	1	up	0.5	F11.mp4	R11.mp4	0	right	left	0	0.6613	9	F11.mp4	R11.mp4	1	0	up	1	0.5499	11	1
15	m	23	portuguese	0	yilel	yilel_fal.mp3	0	down	-0.5	R5.mp4	F7.mp4	1	right	left	0	0.3529	8	R5.mp4	F7.mp4	1	1	up	0	0.9406	2	1
15	m	23	portuguese	0	yilel	yilel_ris.mp3	1	up	0.5	R2.mp4	F3.mp4	1	left	right	0	0.5173	3	F3.mp4	R2.mp4	0	0	up	1	0.6262	10	1
15	m	23	portuguese	0	yina	yina_fal.mp3	0	down	-0.5	R1.mp4	F11.mp4	1	right	right	1	0.6322	19	F11.mp4	R1.mp4	0	0	down	1	1.2939	3	0
15	m	23	portuguese	0	yina	yina_ris.mp3	1	up	0.5	F9.mp4	R1.mp4	0	right	right	1	0.8435	23	R1.mp4	F9.mp4	0	1	down	0	1.0531	19	0
15	m	23	portuguese	0	ylo	ylo_fal.mp3	0	down	-0.5	F3.mp4	R7.mp4	0	left	left	1	0.2581	6	F3.mp4	R7.mp4	1	0	up	0	0.7431	6	1
15	m	23	portuguese	0	ylo	ylo_ris.mp3	1	up	0.5	R9.mp4	F10.mp4	1	left	left	1	1.8567	2	R9.mp4	F10.mp4	1	1	up	1	0.7746	15	1
16	f	42	english	0	ivam	ivam_fal.mp3	0	down	-0.5	R1.mp4	F10.mp4	1	right	right	1	0.4043	12	F10.mp4	R1.mp4	0	0	down	1	0.9801	11	0
16	f	42	english	0	ivam	ivam_ris.mp3	1	up	0.5	R8.mp4	F2.mp4	1	left	right	0	1.0221	4	F2.mp4	R8.mp4	0	0	up	1	0.9695	22	1
16	f	42	english	0	limer	limer_fal.mp3	0	down	-0.5	R11.mp4	F8.mp4	1	right	left	0	1.1367	19	R11.mp4	F8.mp4	1	1	up	0	1.3057	13	1
16	f	42	english	0	limer	limer_ris.mp3	1	up	0.5	R2.mp4	F4.mp4	1	left	right	0	1.2608	8	F4.mp4	R2.mp4	0	0	down	0	5.2362	12	0
16	f	42	english	0	maro	maro_fal.mp3	0	down	-0.5	F2.mp4	R10.mp4	0	left	right	0	0.2795	9	R10.mp4	F2.mp4	0	1	down	1	0.9291	23	0
16	f	42	english	0	maro	maro_ris.mp3	1	up	0.5	R11.mp4	F8.mp4	1	left	right	0	0.3305	23	F8.mp4	R11.mp4	0	0	up	1	2.0091	5	1
16	f	42	english	0	reman	reman_fal.mp3	0	down	-0.5	F1.mp4	R5.mp4	0	left	right	0	7.0839	3	R5.mp4	F1.mp4	0	1	down	1	3.3369	18	0
16	f	42	english	0	reman	reman_ris.mp3	1	up	0.5	F12.mp4	R1.mp4	0	right	right	1	4.803	13	R1.mp4	F12.mp4	0	1	up	1	1.0537	3	1
16	f	42	english	0	shinen	shinen_fal.mp3	0	down	-0.5	F5.mp4	R4.mp4	0	left	left	1	0.6503	16	F5.mp4	R4.mp4	1	0	down	1	1.0769	21	0
16	f	42	english	0	shinen	shinen_ris.mp3	1	up	0.5	F3.mp4	R12.mp4	0	right	left	0	0.6463	21	F3.mp4	R12.mp4	1	0	up	1	1.1696	15	1
16	f	42	english	0	teya	teya_fal.mp3	0	down	-0.5	F11.mp4	R3.mp4	0	left	left	1	0.47	1	F11.mp4	R3.mp4	1	0	down	1	1.1218	10	0
16	f	42	english	0	teya	teya_ris.mp3	1	up	0.5	F5.mp4	R4.mp4	0	right	right	1	0.4897	20	R4.mp4	F5.mp4	0	1	up	1	1.1361	6	1
16	f	42	english	0	tila	tila_fal.mp3	0	down	-0.5	F7.mp4	R9.mp4	0	left	left	1	0.335	17	F7.mp4	R9.mp4	1	0	down	1	1.1749	19	0
16	f	42	english	0	tila	tila_ris.mp3	1	up	0.5	F1.mp4	R9.mp4	0	right	left	0	1.3592	0	F1.mp4	R9.mp4	1	0	up	1	0.8568	20	1
16	f	42	english	0	vewa	vewa_fal.mp3	0	down	-0.5	F6.mp4	R7.mp4	0	left	right	0	0.2428	6	R7.mp4	F6.mp4	0	1	down	1	0.9945	7	0
16	f	42	english	0	vewa	vewa_ris.mp3	1	up	0.5	F6.mp4	R6.mp4	0	right	left	0	0.9551	14	F6.mp4	R6.mp4	1	0	up	1	1.3615	8	1
16	f	42	english	0	wemi	wemi_fal.mp3	0	down	-0.5	F3.mp4	R8.mp4	0	left	left	1	0.8197	5	F3.mp4	R8.mp4	1	0	down	1	1.3708	2	0
16	f	42	english	0	wemi	wemi_ris.mp3	1	up	0.5	F9.mp4	R5.mp4	0	right	right	1	0.1937	15	R5.mp4	F9.mp4	0	1	up	1	2.1862	0	1
16	f	42	english	0	yilel	yilel_fal.mp3	0	down	-0.5	R6.mp4	F12.mp4	1	right	left	0	1.0291	11	R6.mp4	F12.mp4	1	1	down	1	1.0864	4	0
16	f	42	english	0	yilel	yilel_ris.mp3	1	up	0.5	F11.mp4	R7.mp4	0	right	left	0	0.5408	10	F11.mp4	R7.mp4	1	0	up	1	1.0921	14	1
16	f	42	english	0	yina	yina_fal.mp3	0	down	-0.5	R12.mp4	F9.mp4	1	right	right	1	0.7123	7	F9.mp4	R12.mp4	0	0	down	1	0.9769	1	0
16	f	42	english	0	yina	yina_ris.mp3	1	up	0.5	R3.mp4	F7.mp4	1	left	left	1	1.0096	18	R3.mp4	F7.mp4	1	1	up	1	1.1942	9	1
16	f	42	english	0	ylo	ylo_fal.mp3	0	down	-0.5	F4.mp4	R2.mp4	0	left	right	0	0.6045	22	R2.mp4	F4.mp4	0	1	down	1	1.0006	17	0
16	f	42	english	0	ylo	ylo_ris.mp3	1	up	0.5	F10.mp4	R10.mp4	0	right	left	0	0.5679	2	F10.mp4	R10.mp4	1	0	up	1	1.5997	16	1
17	m	21	portuguese	0	ivam	ivam_fal.mp3	0	down	-0.5	R4.mp4	F3.mp4	1	right	left	0	0.5833	9	R4.mp4	F3.mp4	1	1	down	1	1.1651	12	0
17	m	21	portuguese	0	ivam	ivam_ris.mp3	1	up	0.5	R7.mp4	F2.mp4	1	left	left	1	1.2713	0	R7.mp4	F2.mp4	1	1	down	0	1.8345	2	0
17	m	21	portuguese	0	limer	limer_fal.mp3	0	down	-0.5	F1.mp4	R1.mp4	0	left	left	1	1.4787	16	F1.mp4	R1.mp4	1	0	up	0	1.6001	14	1
17	m	21	portuguese	0	limer	limer_ris.mp3	1	up	0.5	F11.mp4	R11.mp4	0	right	left	0	0.6672	10	F11.mp4	R11.mp4	1	0	up	1	1.2307	3	1
17	m	21	portuguese	0	maro	maro_fal.mp3	0	down	-0.5	F11.mp4	R9.mp4	0	left	right	0	1.1336	3	R9.mp4	F11.mp4	0	1	down	1	1.4807	7	0
17	m	21	portuguese	0	maro	maro_ris.mp3	1	up	0.5	F3.mp4	R5.mp4	0	right	left	0	0.95	13	F3.mp4	R5.mp4	1	0	up	1	1.07	23	1
17	m	21	portuguese	0	reman	reman_fal.mp3	0	down	-0.5	F4.mp4	R12.mp4	0	left	right	0	1.6666	15	R12.mp4	F4.mp4	0	1	up	0	6.0294	0	1
17	m	21	portuguese	0	reman	reman_ris.mp3	1	up	0.5	R3.mp4	F8.mp4	1	left	right	0	1.0538	23	F8.mp4	R3.mp4	0	0	up	1	0.949	10	1
17	m	21	portuguese	0	shinen	shinen_fal.mp3	0	down	-0.5	R6.mp4	F10.mp4	1	right	right	1	1.1674	7	F10.mp4	R6.mp4	0	0	down	1	1.2984	17	0
17	m	21	portuguese	0	shinen	shinen_ris.mp3	1	up	0.5	F6.mp4	R4.mp4	0	right	right	1	1.6158	19	R4.mp4	F6.mp4	0	1	up	1	3.7838	22	1
17	m	21	portuguese	0	teya	teya_fal.mp3	0	down	-0.5	F12.mp4	R8.mp4	0	left	left	1	0.7213	22	F12.mp4	R8.mp4	1	0	up	0	1.1201	8	1
17	m	21	portuguese	0	teya	teya_ris.mp3	1	up	0.5	F10.mp4	R12.mp4	0	right	left	0	1.117	12	F10.mp4	R12.mp4	1	0	up	1	1.033	19	1
17	m	21	portuguese	0	tila	tila_fal.mp3	0	down	-0.5	F9.mp4	R5.mp4	0	left	left	1	0.5169	8	F9.mp4	R5.mp4	1	0	down	1	2.8638	21	0
17	m	21	portuguese	0	tila	tila_ris.mp3	1	up	0.5	R6.mp4	F9.mp4	1	left	right	0	0.1346	5	F9.mp4	R6.mp4	0	0	up	1	0.9335	20	1
17	m	21	portuguese	0	vewa	vewa_fal.mp3	0	down	-0.5	F2.mp4	R7.mp4	0	left	left	1	7.4505	4	F2.mp4	R7.mp4	1	0	up	0	1.7172	1	1
17	m	21	portuguese	0	vewa	vewa_ris.mp3	1	up	0.5	F7.mp4	R1.mp4	0	right	right	1	1.4852	20	R1.mp4	F7.mp4	0	1	up	1	1.2852	4	1
17	m	21	portuguese	0	wemi	wemi_fal.mp3	0	down	-0.5	R3.mp4	F8.mp4	1	right	right	1	1.0011	2	F8.mp4	R3.mp4	0	0	down	1	1.1664	9	0
17	m	21	portuguese	0	wemi	wemi_ris.mp3	1	up	0.5	F4.mp4	R8.mp4	0	right	right	1	0.8176	21	R8.mp4	F4.mp4	0	1	up	1	1.0994	18	1
17	m	21	portuguese	0	yilel	yilel_fal.mp3	0	down	-0.5	F6.mp4	R10.mp4	0	left	left	1	0.9672	18	F6.mp4	R10.mp4	1	0	down	1	2.3001	16	0
17	m	21	portuguese	0	yilel	yilel_ris.mp3	1	up	0.5	F1.mp4	R10.mp4	0	right	right	1	0.9843	6	R10.mp4	F1.mp4	0	1	up	1	0.9355	5	1
17	m	21	portuguese	0	yina	yina_fal.mp3	0	down	-0.5	R2.mp4	F5.mp4	1	right	right	1	1.5836	11	F5.mp4	R2.mp4	0	0	down	1	1.0669	13	0
17	m	21	portuguese	0	yina	yina_ris.mp3	1	up	0.5	F5.mp4	R2.mp4	0	right	left	0	0.299	1	F5.mp4	R2.mp4	1	0	up	1	1.0165	11	1
17	m	21	portuguese	0	ylo	ylo_fal.mp3	0	down	-0.5	F7.mp4	R11.mp4	0	left	right	0	1.7667	14	R11.mp4	F7.mp4	0	1	down	1	0.933	6	0
17	m	21	portuguese	0	ylo	ylo_ris.mp3	1	up	0.5	R9.mp4	F12.mp4	1	left	left	1	0.6018	17	R9.mp4	F12.mp4	1	1	down	0	1.7664	15	0
18	m	19	portuguese	0	ivam	ivam_fal.mp3	0	down	-0.5	F7.mp4	R2.mp4	0	left	left	1	2.7031	8	F7.mp4	R2.mp4	1	0	down	1	0.983	22	0
18	m	19	portuguese	0	ivam	ivam_ris.mp3	1	up	0.5	F5.mp4	R10.mp4	0	right	right	1	0.6746	12	R10.mp4	F5.mp4	0	1	up	1	1.6203	21	1
18	m	19	portuguese	0	limer	limer_fal.mp3	0	down	-0.5	R7.mp4	F4.mp4	1	right	left	0	0.1495	23	R7.mp4	F4.mp4	1	1	down	1	2.7112	18	0
18	m	19	portuguese	0	limer	limer_ris.mp3	1	up	0.5	F4.mp4	R8.mp4	0	right	right	1	0.8834	0	R8.mp4	F4.mp4	0	1	up	1	1.433	16	1
18	m	19	portuguese	0	maro	maro_fal.mp3	0	down	-0.5	F5.mp4	R12.mp4	0	left	left	1	3.8121	22	F5.mp4	R12.mp4	1	0	down	1	1.1559	10	0
18	m	19	portuguese	0	maro	maro_ris.mp3	1	up	0.5	F12.mp4	R12.mp4	0	right	left	0	0.3861	20	F12.mp4	R12.mp4	1	0	up	1	1.1993	20	1
18	m	19	portuguese	0	reman	reman_fal.mp3	0	down	-0.5	R5.mp4	F2.mp4	1	right	right	1	2.1276	10	F2.mp4	R5.mp4	0	0	down	1	3.0063	3	0
18	m	19	portuguese	0	reman	reman_ris.mp3	1	up	0.5	F3.mp4	R9.mp4	0	right	left	0	1.2731	15	F3.mp4	R9.mp4	1	0	up	1	1.093	7	1
18	m	19	portuguese	0	shinen	shinen_fal.mp3	0	down	-0.5	F10.mp4	R9.mp4	0	left	right	0	1.7296	21	R9.mp4	F10.mp4	0	1	down	1	2.3874	5	0
18	m	19	portuguese	0	shinen	shinen_ris.mp3	1	up	0.5	R5.mp4	F6.mp4	1	left	left	1	2.7005	2	R5.mp4	F6.mp4	1	1	up	1	1.2663	17	1
18	m	19	portuguese	0	teya	teya_fal.mp3	0	down	-0.5	R3.mp4	F11.mp4	1	right	right	1	1.4176	7	F11.mp4	R3.mp4	0	0	down	1	1.2387	9	0
18	m	19	portuguese	0	teya	teya_ris.mp3	1	up	0.5	R1.mp4	F8.mp4	1	left	right	0	2.7995	6	F8.mp4	R1.mp4	0	0	up	1	1.9052	19	1
18	m	19	portuguese	0	tila	tila_fal.mp3	0	down	-0.5	R6.mp4	F9.mp4	1	right	right	1	1.0201	11	F9.mp4	R6.mp4	0	0	down	1	1.4886	11	0
18	m	19	portuguese	0	tila	tila_ris.mp3	1	up	0.5	F2.mp4	R2.mp4	0	right	right	1	5.515	9	R2.mp4	F2.mp4	0	1	up	1	1.3093	1	1
18	m	19	portuguese	0	vewa	vewa_fal.mp3	0	down	-0.5	R10.mp4	F6.mp4	1	right	left	0	1.1529	4	R10.mp4	F6.mp4	1	1	down	1	2.5234	6	0
18	m	19	portuguese	0	vewa	vewa_ris.mp3	1	up	0.5	F9.mp4	R7.mp4	0	right	right	1	4.3143	14	R7.mp4	F9.mp4	0	1	up	1	0.968	8	1
18	m	19	portuguese	0	wemi	wemi_fal.mp3	0	down	-0.5	F8.mp4	R1.mp4	0	left	right	0	4.9121	18	R1.mp4	F8.mp4	0	1	down	1	1.5315	13	0
18	m	19	portuguese	0	wemi	wemi_ris.mp3	1	up	0.5	R3.mp4	F1.mp4	1	left	right	0	1.2626	1	F1.mp4	R3.mp4	0	0	up	1	1.0025	14	1
18	m	19	portuguese	0	yilel	yilel_fal.mp3	0	down	-0.5	R11.mp4	F12.mp4	1	right	right	1	0.3622	3	F12.mp4	R11.mp4	0	0	down	1	3.0791	0	0
18	m	19	portuguese	0	yilel	yilel_ris.mp3	1	up	0.5	R6.mp4	F11.mp4	1	left	left	1	0.3919	16	R6.mp4	F11.mp4	1	1	up	1	1.8985	2	1
18	m	19	portuguese	0	yina	yina_fal.mp3	0	down	-0.5	F3.mp4	R4.mp4	0	left	left	1	2.8193	5	F3.mp4	R4.mp4	1	0	down	1	3.0933	4	0
18	m	19	portuguese	0	yina	yina_ris.mp3	1	up	0.5	F10.mp4	R11.mp4	0	right	right	1	2.1394	19	R11.mp4	F10.mp4	0	1	up	1	1.2871	23	1
18	m	19	portuguese	0	ylo	ylo_fal.mp3	0	down	-0.5	F1.mp4	R8.mp4	0	left	left	1	0.2334	17	F1.mp4	R8.mp4	1	0	down	1	1.0371	15	0
18	m	19	portuguese	0	ylo	ylo_ris.mp3	1	up	0.5	R4.mp4	F7.mp4	1	left	left	1	1.8069	13	R4.mp4	F7.mp4	1	1	up	1	1.8882	12	1
19	m	21	portuguese	0	ivam	ivam_fal.mp3	0	down	-0.5	F4.mp4	R3.mp4	0	left	right	0	0.9867	2	R3.mp4	F4.mp4	0	1	down	1	1.1223	1	0
19	m	21	portuguese	0	ivam	ivam_ris.mp3	1	up	0.5	R3.mp4	F11.mp4	1	left	left	1	0.7161	18	R3.mp4	F11.mp4	1	1	up	1	1.3579	23	1
19	m	21	portuguese	0	limer	limer_fal.mp3	0	down	-0.5	F1.mp4	R2.mp4	0	left	left	1	0.8251	5	F1.mp4	R2.mp4	1	0	down	1	1.5167	11	0
19	m	21	portuguese	0	limer	limer_ris.mp3	1	up	0.5	R10.mp4	F8.mp4	1	left	left	1	0.5441	17	R10.mp4	F8.mp4	1	1	up	1	0.9818	8	1
19	m	21	portuguese	0	maro	maro_fal.mp3	0	down	-0.5	F9.mp4	R8.mp4	0	left	left	1	1.023	23	F9.mp4	R8.mp4	1	0	down	1	1.6443	18	0
19	m	21	portuguese	0	maro	maro_ris.mp3	1	up	0.5	F3.mp4	R5.mp4	0	right	left	0	0.5669	10	F3.mp4	R5.mp4	1	0	up	1	2.0216	20	1
19	m	21	portuguese	0	reman	reman_fal.mp3	0	down	-0.5	F2.mp4	R6.mp4	0	left	left	1	0.752	9	F2.mp4	R6.mp4	1	0	down	1	1.6579	4	0
19	m	21	portuguese	0	reman	reman_ris.mp3	1	up	0.5	F2.mp4	R2.mp4	0	right	left	0	0.6007	20	F2.mp4	R2.mp4	1	0	up	1	0.9797	15	1
19	m	21	portuguese	0	shinen	shinen_fal.mp3	0	down	-0.5	R11.mp4	F11.mp4	1	right	right	1	0.6492	13	F11.mp4	R11.mp4	0	0	down	1	2.8727	21	0
19	m	21	portuguese	0	shinen	shinen_ris.mp3	1	up	0.5	F5.mp4	R9.mp4	0	right	right	1	1.3852	6	R9.mp4	F5.mp4	0	1	up	1	1.4822	19	1
19	m	21	portuguese	0	teya	teya_fal.mp3	0	down	-0.5	R7.mp4	F7.mp4	1	right	right	1	0.4991	16	F7.mp4	R7.mp4	0	0	down	1	1.6225	3	0
19	m	21	portuguese	0	teya	teya_ris.mp3	1	up	0.5	R6.mp4	F7.mp4	1	left	left	1	0.8346	4	R6.mp4	F7.mp4	1	1	up	1	1.4328	0	1
19	m	21	portuguese	0	tila	tila_fal.mp3	0	down	-0.5	R10.mp4	F6.mp4	1	right	right	1	1.7541	0	F6.mp4	R10.mp4	0	0	down	1	1.5896	16	0
19	m	21	portuguese	0	tila	tila_ris.mp3	1	up	0.5	F9.mp4	R4.mp4	0	right	left	0	0.8522	15	F9.mp4	R4.mp4	1	0	up	1	1.0243	17	1
19	m	21	portuguese	0	vewa	vewa_fal.mp3	0	down	-0.5	R4.mp4	F3.mp4	1	right	left	0	0.5892	21	R4.mp4	F3.mp4	1	1	down	1	1.539	9	0
19	m	21	portuguese	0	vewa	vewa_ris.mp3	1	up	0.5	F10.mp4	R1.mp4	0	right	right	1	0.649	11	R1.mp4	F10.mp4	0	1	up	1	1.2806	10	1
19	m	21	portuguese	0	wemi	wemi_fal.mp3	0	down	-0.5	R12.mp4	F8.mp4	1	right	left	0	0.9604	14	R12.mp4	F8.mp4	1	1	down	1	1.9056	2	0
19	m	21	portuguese	0	wemi	wemi_ris.mp3	1	up	0.5	R12.mp4	F4.mp4	1	left	right	0	1.9008	12	F4.mp4	R12.mp4	0	0	up	1	1.1966	13	1
19	m	21	portuguese	0	yilel	yilel_fal.mp3	0	down	-0.5	R1.mp4	F10.mp4	1	right	right	1	1.2992	3	F10.mp4	R1.mp4	0	0	down	1	1.5817	6	0
19	m	21	portuguese	0	yilel	yilel_ris.mp3	1	up	0.5	R8.mp4	F1.mp4	1	left	right	0	0.7177	19	F1.mp4	R8.mp4	0	0	up	1	1.4393	22	1
19	m	21	portuguese	0	yina	yina_fal.mp3	0	down	-0.5	F5.mp4	R5.mp4	0	left	left	1	0.7748	7	F5.mp4	R5.mp4	1	0	down	1	1.2724	7	0
19	m	21	portuguese	0	yina	yina_ris.mp3	1	up	0.5	F6.mp4	R11.mp4	0	right	right	1	1.1007	1	R11.mp4	F6.mp4	0	1	up	1	1.1444	5	1
19	m	21	portuguese	0	ylo	ylo_fal.mp3	0	down	-0.5	R9.mp4	F12.mp4	1	right	right	1	0.5654	8	F12.mp4	R9.mp4	0	0	down	1	1.9391	14	0
19	m	21	portuguese	0	ylo	ylo_ris.mp3	1	up	0.5	F12.mp4	R7.mp4	0	right	left	0	0.519	22	F12.mp4	R7.mp4	1	0	up	1	1.1914	12	1
20	f	30	english	0	ivam	ivam_fal.mp3	0	down	-0.5	R11.mp4	F4.mp4	1	right	left	0	0.1262	18	R11.mp4	F4.mp4	1	1	up	0	1.4475	7	1
20	f	30	english	0	ivam	ivam_ris.mp3	1	up	0.5	F7.mp4	R9.mp4	0	right	right	1	1.1148	7	R9.mp4	F7.mp4	0	1	down	0	0.7649	16	0
20	f	30	english	0	limer	limer_fal.mp3	0	down	-0.5	R6.mp4	F2.mp4	1	right	left	0	6.4263	19	R6.mp4	F2.mp4	1	1	down	1	0.9651	13	0
20	f	30	english	0	limer	limer_ris.mp3	1	up	0.5	R5.mp4	F6.mp4	1	left	right	0	2.7769	21	F6.mp4	R5.mp4	0	0	down	0	1.38	10	0
20	f	30	english	0	maro	maro_fal.mp3	0	down	-0.5	R12.mp4	F8.mp4	1	right	right	1	21.8576	1	F8.mp4	R12.mp4	0	0	down	1	1.4144	1	0
20	f	30	english	0	maro	maro_ris.mp3	1	up	0.5	R4.mp4	F3.mp4	1	left	left	1	0.0011	20	R4.mp4	F3.mp4	1	1	down	0	2.11	9	0
20	f	30	english	0	reman	reman_fal.mp3	0	down	-0.5	F7.mp4	R1.mp4	0	left	left	1	5.2879	17	F7.mp4	R1.mp4	1	0	up	0	2.1121	6	1
20	f	30	english	0	reman	reman_ris.mp3	1	up	0.5	F2.mp4	R1.mp4	0	right	right	1	5.803	4	R1.mp4	F2.mp4	0	1	up	1	0.981	22	1
20	f	30	english	0	shinen	shinen_fal.mp3	0	down	-0.5	R4.mp4	F3.mp4	1	right	right	1	3.7478	15	F3.mp4	R4.mp4	0	0	up	0	3.1448	0	1
20	f	30	english	0	shinen	shinen_ris.mp3	1	up	0.5	F10.mp4	R12.mp4	0	right	left	0	6.7762	12	F10.mp4	R12.mp4	1	0	up	1	1.2647	5	1
20	f	30	english	0	teya	teya_fal.mp3	0	down	-0.5	F9.mp4	R3.mp4	0	left	left	1	5.552	14	F9.mp4	R3.mp4	1	0	down	1	1.6621	4	0
20	f	30	english	0	teya	teya_ris.mp3	1	up	0.5	F5.mp4	R6.mp4	0	right	right	1	5.9568	10	R6.mp4	F5.mp4	0	1	down	0	0.8654	8	0
20	f	30	english	0	tila	tila_fal.mp3	0	down	-0.5	F1.mp4	R7.mp4	0	left	left	1	0.9319	9	F1.mp4	R7.mp4	1	0	down	1	1.0317	23	0
20	f	30	english	0	tila	tila_ris.mp3	1	up	0.5	F12.mp4	R10.mp4	0	right	left	0	1.3568	13	F12.mp4	R10.mp4	1	0	up	1	1.4973	20	1
20	f	30	english	0	vewa	vewa_fal.mp3	0	down	-0.5	R9.mp4	F6.mp4	1	right	right	1	0.4503	6	F6.mp4	R9.mp4	0	0	down	1	1.0632	17	0
20	f	30	english	0	vewa	vewa_ris.mp3	1	up	0.5	R3.mp4	F4.mp4	1	left	right	0	11.1207	2	F4.mp4	R3.mp4	0	0	up	1	1.4597	12	1
20	f	30	english	0	wemi	wemi_fal.mp3	0	down	-0.5	R5.mp4	F10.mp4	1	right	left	0	0.3513	23	R5.mp4	F10.mp4	1	1	down	1	2.2755	14	0
20	f	30	english	0	wemi	wemi_ris.mp3	1	up	0.5	R2.mp4	F11.mp4	1	left	right	0	1.8394	8	F11.mp4	R2.mp4	0	0	down	0	1.0816	15	0
20	f	30	english	0	yilel	yilel_fal.mp3	0	down	-0.5	F11.mp4	R10.mp4	0	left	right	0	6.6086	22	R10.mp4	F11.mp4	0	1	up	0	2.0382	21	1
20	f	30	english	0	yilel	yilel_ris.mp3	1	up	0.5	R11.mp4	F9.mp4	1	left	right	0	1.8781	5	F9.mp4	R11.mp4	0	0	up	1	1.6301	2	1
20	f	30	english	0	yina	yina_fal.mp3	0	down	-0.5	R8.mp4	F12.mp4	1	right	left	0	2.3676	3	R8.mp4	F12.mp4	1	1	down	1	0.9308	11	0
20	f	30	english	0	yina	yina_ris.mp3	1	up	0.5	R8.mp4	F8.mp4	1	left	left	1	0.1174	16	R8.mp4	F8.mp4	1	1	down	0	0.5348	19	0
20	f	30	english	0	ylo	ylo_fal.mp3	0	down	-0.5	F5.mp4	R2.mp4	0	left	left	1	1.5236	11	F5.mp4	R2.mp4	1	0	down	1	1.7958	3	0
20	f	30	english	0	ylo	ylo_ris.mp3	1	up	0.5	R7.mp4	F1.mp4	1	left	left	1	1.163	0	R7.mp4	F1.mp4	1	1	down	0	0.5675	18	0
21	f	29	portuguese	0	ivam	ivam_fal.mp3	0	down	-0.5	F7.mp4	R6.mp4	0	left	right	0	1.0676	3	R6.mp4	F7.mp4	0	1	down	1	3.1858	0	0
21	f	29	portuguese	0	ivam	ivam_ris.mp3	1	up	0.5	R7.mp4	F4.mp4	1	left	left	1	1.8383	18	R7.mp4	F4.mp4	1	1	up	1	1.3087	5	1
21	f	29	portuguese	0	limer	limer_fal.mp3	0	down	-0.5	R11.mp4	F9.mp4	1	right	right	1	0.4092	14	F9.mp4	R11.mp4	0	0	down	1	1.3369	21	0
21	f	29	portuguese	0	limer	limer_ris.mp3	1	up	0.5	R12.mp4	F10.mp4	1	left	right	0	8.0553	20	F10.mp4	R12.mp4	0	0	up	1	1.0064	23	1
21	f	29	portuguese	0	maro	maro_fal.mp3	0	down	-0.5	R9.mp4	F3.mp4	1	right	right	1	7.0714	10	F3.mp4	R9.mp4	0	0	down	1	2.5073	1	0
21	f	29	portuguese	0	maro	maro_ris.mp3	1	up	0.5	F2.mp4	R2.mp4	0	right	left	0	1.8268	0	F2.mp4	R2.mp4	1	0	up	1	1.6683	16	1
21	f	29	portuguese	0	reman	reman_fal.mp3	0	down	-0.5	F6.mp4	R1.mp4	0	left	left	1	1.2529	16	F6.mp4	R1.mp4	1	0	down	1	1.4579	3	0
21	f	29	portuguese	0	reman	reman_ris.mp3	1	up	0.5	F1.mp4	R9.mp4	0	right	left	0	1.5297	7	F1.mp4	R9.mp4	1	0	up	1	1.2192	17	1
21	f	29	portuguese	0	shinen	shinen_fal.mp3	0	down	-0.5	F12.mp4	R4.mp4	0	left	right	0	1.3922	13	R4.mp4	F12.mp4	0	1	down	1	1.5212	11	0
21	f	29	portuguese	0	shinen	shinen_ris.mp3	1	up	0.5	F12.mp4	R10.mp4	0	right	left	0	0.5904	4	F12.mp4	R10.mp4	1	0	up	1	1.1423	14	1
21	f	29	portuguese	0	teya	teya_fal.mp3	0	down	-0.5	R8.mp4	F4.mp4	1	right	left	0	2.3346	12	R8.mp4	F4.mp4	1	1	down	1	1.2618	13	0
21	f	29	portuguese	0	teya	teya_ris.mp3	1	up	0.5	R5.mp4	F6.mp4	1	left	right	0	0.9775	21	F6.mp4	R5.mp4	0	0	up	1	1.2168	12	1
21	f	29	portuguese	0	tila	tila_fal.mp3	0	down	-0.5	R7.mp4	F11.mp4	1	right	right	1	0.6924	2	F11.mp4	R7.mp4	0	0	down	1	1.2279	19	0
21	f	29	portuguese	0	tila	tila_ris.mp3	1	up	0.5	R11.mp4	F3.mp4	1	left	right	0	4.8252	19	F3.mp4	R11.mp4	0	0	up	1	1.4197	20	1
21	f	29	portuguese	0	vewa	vewa_fal.mp3	0	down	-0.5	F8.mp4	R12.mp4	0	left	left	1	1.8837	11	F8.mp4	R12.mp4	1	0	down	1	0.9883	15	0
21	f	29	portuguese	0	vewa	vewa_ris.mp3	1	up	0.5	R6.mp4	F5.mp4	1	left	right	0	1.8873	5	F5.mp4	R6.mp4	0	0	up	1	1.8703	2	1
21	f	29	portuguese	0	wemi	wemi_fal.mp3	0	down	-0.5	R3.mp4	F2.mp4	1	right	left	0	0.485	9	R3.mp4	F2.mp4	1	1	up	0	1.1375	10	1
21	f	29	portuguese	0	wemi	wemi_ris.mp3	1	up	0.5	R8.mp4	F7.mp4	1	left	left	1	1.0052	23	R8.mp4	F7.mp4	1	1	up	1	2.0267	8	1
21	f	29	portuguese	0	yilel	yilel_fal.mp3	0	down	-0.5	F10.mp4	R5.mp4	0	left	left	1	0.8925	17	F10.mp4	R5.mp4	1	0	down	1	1.3275	9	0
21	f	29	portuguese	0	yilel	yilel_ris.mp3	1	up	0.5	F11.mp4	R1.mp4	0	right	right	1	0.6351	22	R1.mp4	F11.mp4	0	1	up	1	0.9548	18	1
21	f	29	portuguese	0	yina	yina_fal.mp3	0	down	-0.5	F5.mp4	R10.mp4	0	left	right	0	7.0704	6	R10.mp4	F5.mp4	0	1	down	1	2.203	4	0
21	f	29	portuguese	0	yina	yina_ris.mp3	1	up	0.5	R4.mp4	F8.mp4	1	left	right	0	0.742	15	F8.mp4	R4.mp4	0	0	up	1	1.2041	6	1
21	f	29	portuguese	0	ylo	ylo_fal.mp3	0	down	-0.5	R2.mp4	F1.mp4	1	right	left	0	6.148	8	R2.mp4	F1.mp4	1	1	down	1	2.5879	22	0
21	f	29	portuguese	0	ylo	ylo_ris.mp3	1	up	0.5	R3.mp4	F9.mp4	1	left	right	0	2.3867	1	F9.mp4	R3.mp4	0	0	up	1	2.121	7	1
22	f	56	english	0	ivam	ivam_fal.mp3	0	down	-0.5	F10.mp4	R7.mp4	0	left	right	0	0.8037	21	R7.mp4	F10.mp4	0	1	down	1	0.7358	19	0
22	f	56	english	0	ivam	ivam_ris.mp3	1	up	0.5	F3.mp4	R1.mp4	0	right	right	1	0.2377	22	R1.mp4	F3.mp4	0	1	up	1	4.3482	0	1
22	f	56	english	0	limer	limer_fal.mp3	0	down	-0.5	F3.mp4	R9.mp4	0	left	right	0	1.5393	20	R9.mp4	F3.mp4	0	1	up	0	1.234	21	1
22	f	56	english	0	limer	limer_ris.mp3	1	up	0.5	F4.mp4	R8.mp4	0	right	left	0	7.6679	5	F4.mp4	R8.mp4	1	0	up	1	0.8834	6	1
22	f	56	english	0	maro	maro_fal.mp3	0	down	-0.5	F12.mp4	R3.mp4	0	left	left	1	1.0645	17	F12.mp4	R3.mp4	1	0	up	0	1.0114	14	1
22	f	56	english	0	maro	maro_ris.mp3	1	up	0.5	R9.mp4	F6.mp4	1	left	left	1	0.2208	23	R9.mp4	F6.mp4	1	1	up	1	0.9963	2	1
22	f	56	english	0	reman	reman_fal.mp3	0	down	-0.5	F6.mp4	R10.mp4	0	left	left	1	0.4993	9	F6.mp4	R10.mp4	1	0	down	1	0.7803	4	0
22	f	56	english	0	reman	reman_ris.mp3	1	up	0.5	R3.mp4	F10.mp4	1	left	left	1	26.8171	10	R3.mp4	F10.mp4	1	1	up	1	1.2556	7	1
22	f	56	english	0	shinen	shinen_fal.mp3	0	down	-0.5	F4.mp4	R11.mp4	0	left	left	1	1.3116	0	F4.mp4	R11.mp4	1	0	down	1	0.8806	10	0
22	f	56	english	0	shinen	shinen_ris.mp3	1	up	0.5	R4.mp4	F1.mp4	1	left	left	1	0.3605	18	R4.mp4	F1.mp4	1	1	up	1	1.7545	3	1
22	f	56	english	0	teya	teya_fal.mp3	0	down	-0.5	F9.mp4	R6.mp4	0	left	left	1	0.2194	13	F9.mp4	R6.mp4	1	0	down	1	1.0308	23	0
22	f	56	english	0	teya	teya_ris.mp3	1	up	0.5	F9.mp4	R5.mp4	0	right	right	1	15.1411	6	R5.mp4	F9.mp4	0	1	up	1	0.7364	22	1
22	f	56	english	0	tila	tila_fal.mp3	0	down	-0.5	F2.mp4	R12.mp4	0	left	left	1	33.2547	14	F2.mp4	R12.mp4	1	0	down	1	0.7643	8	0
22	f	56	english	0	tila	tila_ris.mp3	1	up	0.5	F2.mp4	R2.mp4	0	right	left	0	5.9193	16	F2.mp4	R2.mp4	1	0	up	1	0.9036	13	1
22	f	56	english	0	vewa	vewa_fal.mp3	0	down	-0.5	F11.mp4	R8.mp4	0	left	right	0	2.1795	2	R8.mp4	F11.mp4	0	1	down	1	0.9965	1	0
22	f	56	english	0	vewa	vewa_ris.mp3	1	up	0.5	F7.mp4	R11.mp4	0	right	left	0	8.0609	1	F7.mp4	R11.mp4	1	0	up	1	0.9352	18	1
22	f	56	english	0	wemi	wemi_fal.mp3	0	down	-0.5	F5.mp4	R1.mp4	0	left	right	0	0.4748	4	R1.mp4	F5.mp4	0	1	up	0	1.0794	11	1
22	f	56	english	0	wemi	wemi_ris.mp3	1	up	0.5	F5.mp4	R10.mp4	0	right	left	0	0.1181	19	F5.mp4	R10.mp4	1	0	up	1	0.868	17	1
22	f	56	english	0	yilel	yilel_fal.mp3	0	down	-0.5	F8.mp4	R2.mp4	0	left	left	1	12.0892	7	F8.mp4	R2.mp4	1	0	down	1	2.2133	20	0
22	f	56	english	0	yilel	yilel_ris.mp3	1	up	0.5	R7.mp4	F11.mp4	1	left	right	0	23.7414	12	F11.mp4	R7.mp4	0	0	up	1	0.9299	16	1
22	f	56	english	0	yina	yina_fal.mp3	0	down	-0.5	R4.mp4	F1.mp4	1	right	right	1	0.3621	8	F1.mp4	R4.mp4	0	0	up	0	1.1841	15	1
22	f	56	english	0	yina	yina_ris.mp3	1	up	0.5	F12.mp4	R6.mp4	0	right	right	1	32.2037	15	R6.mp4	F12.mp4	0	1	up	1	0.7622	9	1
22	f	56	english	0	ylo	ylo_fal.mp3	0	down	-0.5	F7.mp4	R5.mp4	0	left	right	0	1.455	3	R5.mp4	F7.mp4	0	1	up	0	1.7997	12	1
22	f	56	english	0	ylo	ylo_ris.mp3	1	up	0.5	R12.mp4	F8.mp4	1	left	right	0	19.0395	11	F8.mp4	R12.mp4	0	0	up	1	0.8118	5	1
23	f	34	english	0	ivam	ivam_fal.mp3	0	down	-0.5	F8.mp4	R6.mp4	0	left	left	1	0.9504	18	F8.mp4	R6.mp4	1	0	down	1	2.4814	0	0
23	f	34	english	0	ivam	ivam_ris.mp3	1	up	0.5	F8.mp4	R1.mp4	0	right	right	1	1.9328	22	R1.mp4	F8.mp4	0	1	down	0	1.3722	3	0
23	f	34	english	0	limer	limer_fal.mp3	0	down	-0.5	R7.mp4	F10.mp4	1	right	left	0	2.4682	0	R7.mp4	F10.mp4	1	1	up	0	2.2372	9	1
23	f	34	english	0	limer	limer_ris.mp3	1	up	0.5	F7.mp4	R7.mp4	0	right	right	1	0.3701	8	R7.mp4	F7.mp4	0	1	up	1	1.937	23	1
23	f	34	english	0	maro	maro_fal.mp3	0	down	-0.5	R1.mp4	F7.mp4	1	right	left	0	0.7224	23	R1.mp4	F7.mp4	1	1	down	1	1.4369	19	0
23	f	34	english	0	maro	maro_ris.mp3	1	up	0.5	R2.mp4	F9.mp4	1	left	left	1	1.4002	4	R2.mp4	F9.mp4	1	1	down	0	2.344	8	0
23	f	34	english	0	reman	reman_fal.mp3	0	down	-0.5	F11.mp4	R4.mp4	0	left	right	0	1.0097	15	R4.mp4	F11.mp4	0	1	down	1	1.2082	7	0
23	f	34	english	0	reman	reman_ris.mp3	1	up	0.5	R4.mp4	F5.mp4	1	left	right	0	0.9355	5	F5.mp4	R4.mp4	0	0	down	0	1.6898	10	0
23	f	34	english	0	shinen	shinen_fal.mp3	0	down	-0.5	F2.mp4	R12.mp4	0	left	left	1	1.463	10	F2.mp4	R12.mp4	1	0	down	1	1.0946	22	0
23	f	34	english	0	shinen	shinen_ris.mp3	1	up	0.5	F11.mp4	R5.mp4	0	right	left	0	0.6681	20	F11.mp4	R5.mp4	1	0	down	0	1.7538	21	0
23	f	34	english	0	teya	teya_fal.mp3	0	down	-0.5	R5.mp4	F3.mp4	1	right	right	1	1.468	16	F3.mp4	R5.mp4	0	0	down	1	1.8839	5	0
23	f	34	english	0	teya	teya_ris.mp3	1	up	0.5	F12.mp4	R10.mp4	0	right	right	1	0.9335	17	R10.mp4	F12.mp4	0	1	up	1	2.4574	4	1
23	f	34	english	0	tila	tila_fal.mp3	0	down	-0.5	F5.mp4	R2.mp4	0	left	right	0	1.3187	19	R2.mp4	F5.mp4	0	1	up	0	2.4417	2	1
23	f	34	english	0	tila	tila_ris.mp3	1	up	0.5	F4.mp4	R12.mp4	0	right	right	1	4.8899	12	R12.mp4	F4.mp4	0	1	up	1	1.472	17	1
23	f	34	english	0	vewa	vewa_fal.mp3	0	down	-0.5	R9.mp4	F12.mp4	1	right	left	0	1.6839	21	R9.mp4	F12.mp4	1	1	down	1	1.6696	20	0
23	f	34	english	0	vewa	vewa_ris.mp3	1	up	0.5	F6.mp4	R3.mp4	0	right	right	1	0.8083	6	R3.mp4	F6.mp4	0	1	up	1	1.839	1	1
23	f	34	english	0	wemi	wemi_fal.mp3	0	down	-0.5	F4.mp4	R11.mp4	0	left	left	1	0.4839	7	F4.mp4	R11.mp4	1	0	up	0	2.6129	18	1
23	f	34	english	0	wemi	wemi_ris.mp3	1	up	0.5	R11.mp4	F10.mp4	1	left	right	0	0.4188	9	F10.mp4	R11.mp4	0	0	down	0	2.2143	12	0
23	f	34	english	0	yilel	yilel_fal.mp3	0	down	-0.5	F9.mp4	R8.mp4	0	left	right	0	13.8936	11	R8.mp4	F9.mp4	0	1	down	1	1.9222	14	0
23	f	34	english	0	yilel	yilel_ris.mp3	1	up	0.5	F3.mp4	R6.mp4	0	right	right	1	0.9613	2	R6.mp4	F3.mp4	0	1	up	1	1.5268	11	1
23	f	34	english	0	yina	yina_fal.mp3	0	down	-0.5	F6.mp4	R3.mp4	0	left	right	0	0.4721	14	R3.mp4	F6.mp4	0	1	down	1	1.4918	6	0
23	f	34	english	0	yina	yina_ris.mp3	1	up	0.5	R9.mp4	F1.mp4	1	left	right	0	0.9017	3	F1.mp4	R9.mp4	0	0	up	1	1.2581	13	1
23	f	34	english	0	ylo	ylo_fal.mp3	0	down	-0.5	R10.mp4	F1.mp4	1	right	left	0	0.6819	13	R10.mp4	F1.mp4	1	1	up	0	2.4924	15	1
23	f	34	english	0	ylo	ylo_ris.mp3	1	up	0.5	F2.mp4	R8.mp4	0	right	right	1	1.9083	1	R8.mp4	F2.mp4	0	1	down	0	1.8974	16	0
24	m	36	portuguese	0	ivam	ivam_fal.mp3	0	down	-0.5	R11.mp4	F12.mp4	1	right	left	0	0.604	16	R11.mp4	F12.mp4	1	1	up	0	2.037	4	1
24	m	36	portuguese	0	ivam	ivam_ris.mp3	1	up	0.5	R6.mp4	F10.mp4	1	left	right	0	0.6166	12	F10.mp4	R6.mp4	0	0	up	1	1.4556	10	1
24	m	36	portuguese	0	limer	limer_fal.mp3	0	down	-0.5	R10.mp4	F4.mp4	1	right	right	1	3.6933	18	F4.mp4	R10.mp4	0	0	down	1	2.9718	19	0
24	m	36	portuguese	0	limer	limer_ris.mp3	1	up	0.5	F6.mp4	R11.mp4	0	right	right	1	0.7045	21	R11.mp4	F6.mp4	0	1	up	1	1.7987	7	1
24	m	36	portuguese	0	maro	maro_fal.mp3	0	down	-0.5	R9.mp4	F3.mp4	1	right	right	1	3.3099	10	F3.mp4	R9.mp4	0	0	down	1	1.6514	9	0
24	m	36	portuguese	0	maro	maro_ris.mp3	1	up	0.5	R4.mp4	F9.mp4	1	left	left	1	1.2569	20	R4.mp4	F9.mp4	1	1	down	0	78.1744	14	0
24	m	36	portuguese	0	reman	reman_fal.mp3	0	down	-0.5	F2.mp4	R1.mp4	0	left	left	1	2.465	13	F2.mp4	R1.mp4	1	0	up	0	2.5903	6	1
24	m	36	portuguese	0	reman	reman_ris.mp3	1	up	0.5	F1.mp4	R7.mp4	0	right	right	1	0.0538	17	R7.mp4	F1.mp4	0	1	up	1	3.6298	3	1
24	m	36	portuguese	0	shinen	shinen_fal.mp3	0	down	-0.5	R4.mp4	F5.mp4	1	right	right	1	1.5918	1	F5.mp4	R4.mp4	0	0	down	1	1.2511	23	0
24	m	36	portuguese	0	shinen	shinen_ris.mp3	1	up	0.5	F4.mp4	R3.mp4	0	right	left	0	1.3729	0	F4.mp4	R3.mp4	1	0	up	1	1.0157	17	1
24	m	36	portuguese	0	teya	teya_fal.mp3	0	down	-0.5	R12.mp4	F8.mp4	1	right	right	1	3.4102	2	F8.mp4	R12.mp4	0	0	down	1	4.7722	0	0
24	m	36	portuguese	0	teya	teya_ris.mp3	1	up	0.5	R10.mp4	F8.mp4	1	left	right	0	3.0998	19	F8.mp4	R10.mp4	0	0	up	1	1.327	8	1
24	m	36	portuguese	0	tila	tila_fal.mp3	0	down	-0.5	F9.mp4	R2.mp4	0	left	right	0	0.3965	7	R2.mp4	F9.mp4	0	1	down	1	2.8657	16	0
24	m	36	portuguese	0	tila	tila_ris.mp3	1	up	0.5	F7.mp4	R5.mp4	0	right	left	0	1.6711	9	F7.mp4	R5.mp4	1	0	up	1	1.0455	21	1
24	m	36	portuguese	0	vewa	vewa_fal.mp3	0	down	-0.5	F7.mp4	R8.mp4	0	left	right	0	0.414	8	R8.mp4	F7.mp4	0	1	up	0	3.4736	13	1
24	m	36	portuguese	0	vewa	vewa_ris.mp3	1	up	0.5	F2.mp4	R8.mp4	0	right	right	1	0.7334	22	R8.mp4	F2.mp4	0	1	up	1	1.2476	2	1
24	m	36	portuguese	0	wemi	wemi_fal.mp3	0	down	-0.5	F1.mp4	R7.mp4	0	left	left	1	1.1024	6	F1.mp4	R7.mp4	1	0	down	1	1.46	15	0
24	m	36	portuguese	0	wemi	wemi_ris.mp3	1	up	0.5	R9.mp4	F11.mp4	1	left	right	0	2.3023	15	F11.mp4	R9.mp4	0	0	up	1	1.079	18	1
24	m	36	portuguese	0	yilel	yilel_fal.mp3	0	down	-0.5	F11.mp4	R6.mp4	0	left	left	1	0.9398	11	F11.mp4	R6.mp4	1	0	down	1	1.1016	11	0
24	m	36	portuguese	0	yilel	yilel_ris.mp3	1	up	0.5	F3.mp4	R1.mp4	0	right	right	1	3.904	14	R1.mp4	F3.mp4	0	1	down	0	0.9686	12	0
24	m	36	portuguese	0	yina	yina_fal.mp3	0	down	-0.5	R3.mp4	F10.mp4	1	right	right	1	0.8978	23	F10.mp4	R3.mp4	0	0	down	1	2.5479	5	0
24	m	36	portuguese	0	yina	yina_ris.mp3	1	up	0.5	F12.mp4	R12.mp4	0	right	left	0	7.244	3	F12.mp4	R12.mp4	1	0	up	1	106.269	20	1
24	m	36	portuguese	0	ylo	ylo_fal.mp3	0	down	-0.5	F6.mp4	R5.mp4	0	left	right	0	0.9174	4	R5.mp4	F6.mp4	0	1	down	1	1.7658	1	0
24	m	36	portuguese	0	ylo	ylo_ris.mp3	1	up	0.5	F5.mp4	R2.mp4	0	right	right	1	1.3387	5	R2.mp4	F5.mp4	0	1	down	0	1.2278	22	0
25	m	37	portuguese	0	ivam	ivam_fal.mp3	0	down	-0.5	F2.mp4	R10.mp4	0	left	right	0	0.7121	8	R10.mp4	F2.mp4	0	1	up	0	1.3403	12	1
25	m	37	portuguese	0	ivam	ivam_ris.mp3	1	up	0.5	R10.mp4	F4.mp4	1	left	left	1	0.4448	19	R10.mp4	F4.mp4	1	1	up	1	0.9513	23	1
25	m	37	portuguese	0	limer	limer_fal.mp3	0	down	-0.5	R1.mp4	F9.mp4	1	right	left	0	0.6276	1	R1.mp4	F9.mp4	1	1	down	1	1.9095	14	0
25	m	37	portuguese	0	limer	limer_ris.mp3	1	up	0.5	R2.mp4	F8.mp4	1	left	right	0	1.1278	9	F8.mp4	R2.mp4	0	0	up	1	0.9842	16	1
25	m	37	portuguese	0	maro	maro_fal.mp3	0	down	-0.5	R3.mp4	F11.mp4	1	right	right	1	0.5724	20	F11.mp4	R3.mp4	0	0	up	0	0.9332	10	1
25	m	37	portuguese	0	maro	maro_ris.mp3	1	up	0.5	R1.mp4	F5.mp4	1	left	right	0	1.4039	6	F5.mp4	R1.mp4	0	0	up	1	1.132	7	1
25	m	37	portuguese	0	reman	reman_fal.mp3	0	down	-0.5	R11.mp4	F3.mp4	1	right	left	0	29.5472	4	R11.mp4	F3.mp4	1	1	down	1	1.2158	1	0
25	m	37	portuguese	0	reman	reman_ris.mp3	1	up	0.5	R6.mp4	F12.mp4	1	left	left	1	0.5459	22	R6.mp4	F12.mp4	1	1	up	1	1.0666	17	1
25	m	37	portuguese	0	shinen	shinen_fal.mp3	0	down	-0.5	F1.mp4	R2.mp4	0	left	right	0	0.6932	23	R2.mp4	F1.mp4	0	1	down	1	0.9725	6	0
25	m	37	portuguese	0	shinen	shinen_ris.mp3	1	up	0.5	R5.mp4	F7.mp4	1	left	left	1	16.9106	2	R5.mp4	F7.mp4	1	1	up	1	1.7303	19	1
25	m	37	portuguese	0	teya	teya_fal.mp3	0	down	-0.5	R12.mp4	F4.mp4	1	right	left	0	0.8442	13	R12.mp4	F4.mp4	1	1	up	0	0.9115	2	1
25	m	37	portuguese	0	teya	teya_ris.mp3	1	up	0.5	R4.mp4	F1.mp4	1	left	left	1	0.8684	21	R4.mp4	F1.mp4	1	1	up	1	0.8787	3	1
25	m	37	portuguese	0	tila	tila_fal.mp3	0	down	-0.5	F12.mp4	R8.mp4	0	left	right	0	2.3383	0	R8.mp4	F12.mp4	0	1	down	1	1.4662	13	0
25	m	37	portuguese	0	tila	tila_ris.mp3	1	up	0.5	F10.mp4	R11.mp4	0	right	left	0	0.8874	12	F10.mp4	R11.mp4	1	0	up	1	1.4384	20	1
25	m	37	portuguese	0	vewa	vewa_fal.mp3	0	down	-0.5	F7.mp4	R6.mp4	0	left	left	1	0.6468	15	F7.mp4	R6.mp4	1	0	down	1	1.0493	4	0
25	m	37	portuguese	0	vewa	vewa_ris.mp3	1	up	0.5	R7.mp4	F3.mp4	1	left	left	1	1.1644	18	R7.mp4	F3.mp4	1	1	up	1	1.1146	18	1
25	m	37	portuguese	0	wemi	wemi_fal.mp3	0	down	-0.5	F5.mp4	R9.mp4	0	left	left	1	9.7177	5	F5.mp4	R9.mp4	1	0	up	0	1.4671	11	1
25	m	37	portuguese	0	wemi	wemi_ris.mp3	1	up	0.5	F2.mp4	R12.mp4	0	right	left	0	2.5274	7	F2.mp4	R12.mp4	1	0	up	1	1.7807	0	1
25	m	37	portuguese	0	yilel	yilel_fal.mp3	0	down	-0.5	F10.mp4	R5.mp4	0	left	right	0	0.6363	10	R5.mp4	F10.mp4	0	1	down	1	1.8816	21	0
25	m	37	portuguese	0	yilel	yilel_ris.mp3	1	up	0.5	R8.mp4	F11.mp4	1	left	left	1	0.7848	16	R8.mp4	F11.mp4	1	1	up	1	0.9956	5	1
25	m	37	portuguese	0	yina	yina_fal.mp3	0	down	-0.5	R4.mp4	F6.mp4	1	right	left	0	1.0343	11	R4.mp4	F6.mp4	1	1	down	1	1.4659	15	0
25	m	37	portuguese	0	yina	yina_ris.mp3	1	up	0.5	F6.mp4	R3.mp4	0	right	right	1	1.1915	14	R3.mp4	F6.mp4	0	1	down	0	1.8688	9	0
25	m	37	portuguese	0	ylo	ylo_fal.mp3	0	down	-0.5	R7.mp4	F8.mp4	1	right	right	1	9.6785	3	F8.mp4	R7.mp4	0	0	down	1	3.0639	22	0
25	m	37	portuguese	0	ylo	ylo_ris.mp3	1	up	0.5	F9.mp4	R9.mp4	0	right	right	1	0.6262	17	R9.mp4	F9.mp4	0	1	up	1	1.0177	8	1
26	m	25	english	0	ivam	ivam_fal.mp3	0	down	-0.5	R10.mp4	F2.mp4	1	right	right	1	0.402	4	F2.mp4	R10.mp4	0	0	down	1	1.6375	7	0
26	m	25	english	0	ivam	ivam_ris.mp3	1	up	0.5	F8.mp4	R6.mp4	0	right	left	0	0.4519	15	F8.mp4	R6.mp4	1	0	up	1	1.3129	23	1
26	m	25	english	0	limer	limer_fal.mp3	0	down	-0.5	R4.mp4	F10.mp4	1	right	right	1	0.2586	1	F10.mp4	R4.mp4	0	0	down	1	1.0572	22	0
26	m	25	english	0	limer	limer_ris.mp3	1	up	0.5	R2.mp4	F6.mp4	1	left	left	1	0.7819	12	R2.mp4	F6.mp4	1	1	up	1	1.2969	13	1
26	m	25	english	0	maro	maro_fal.mp3	0	down	-0.5	R9.mp4	F3.mp4	1	right	right	1	0.3058	11	F3.mp4	R9.mp4	0	0	down	1	0.9375	8	0
26	m	25	english	0	maro	maro_ris.mp3	1	up	0.5	R1.mp4	F2.mp4	1	left	left	1	0.9667	3	R1.mp4	F2.mp4	1	1	up	1	4.7728	0	1
26	m	25	english	0	reman	reman_fal.mp3	0	down	-0.5	R3.mp4	F9.mp4	1	right	left	0	0.0517	21	R3.mp4	F9.mp4	1	1	down	1	0.7873	10	0
26	m	25	english	0	reman	reman_ris.mp3	1	up	0.5	F7.mp4	R10.mp4	0	right	left	0	0.4685	14	F7.mp4	R10.mp4	1	0	up	1	1.2398	1	1
26	m	25	english	0	shinen	shinen_fal.mp3	0	down	-0.5	R6.mp4	F12.mp4	1	right	left	0	0.886	7	R6.mp4	F12.mp4	1	1	down	1	1.0044	15	0
26	m	25	english	0	shinen	shinen_ris.mp3	1	up	0.5	R11.mp4	F1.mp4	1	left	right	0	0.7298	17	F1.mp4	R11.mp4	0	0	down	0	1.7135	2	0
26	m	25	english	0	teya	teya_fal.mp3	0	down	-0.5	F4.mp4	R1.mp4	0	left	left	1	0.3704	8	F4.mp4	R1.mp4	1	0	down	1	1.3211	5	0
26	m	25	english	0	teya	teya_ris.mp3	1	up	0.5	F12.mp4	R3.mp4	0	right	left	0	0.447	18	F12.mp4	R3.mp4	1	0	up	1	0.8892	17	1
26	m	25	english	0	tila	tila_fal.mp3	0	down	-0.5	R8.mp4	F1.mp4	1	right	left	0	0.3215	19	R8.mp4	F1.mp4	1	1	down	1	1.1013	16	0
26	m	25	english	0	tila	tila_ris.mp3	1	up	0.5	F10.mp4	R7.mp4	0	right	right	1	0.7205	22	R7.mp4	F10.mp4	0	1	up	1	0.912	12	1
26	m	25	english	0	vewa	vewa_fal.mp3	0	down	-0.5	R7.mp4	F6.mp4	1	right	right	1	0.5689	16	F6.mp4	R7.mp4	0	0	up	0	2.232	4	1
26	m	25	english	0	vewa	vewa_ris.mp3	1	up	0.5	F4.mp4	R12.mp4	0	right	right	1	0.5009	6	R12.mp4	F4.mp4	0	1	up	1	1.2102	6	1
26	m	25	english	0	wemi	wemi_fal.mp3	0	down	-0.5	F8.mp4	R11.mp4	0	left	right	0	0.3028	13	R11.mp4	F8.mp4	0	1	down	1	0.8788	18	0
26	m	25	english	0	wemi	wemi_ris.mp3	1	up	0.5	R4.mp4	F9.mp4	1	left	right	0	0.4516	0	F9.mp4	R4.mp4	0	0	up	1	1.1962	21	1
26	m	25	english	0	yilel	yilel_fal.mp3	0	down	-0.5	F7.mp4	R2.mp4	0	left	left	1	0.103	23	F7.mp4	R2.mp4	1	0	down	1	0.9511	11	0
26	m	25	english	0	yilel	yilel_ris.mp3	1	up	0.5	R5.mp4	F5.mp4	1	left	left	1	0.9637	2	R5.mp4	F5.mp4	1	1	up	1	0.9766	9	1
26	m	25	english	0	yina	yina_fal.mp3	0	down	-0.5	F5.mp4	R12.mp4	0	left	left	1	0.2475	9	F5.mp4	R12.mp4	1	0	down	1	1.1738	14	0
26	m	25	english	0	yina	yina_ris.mp3	1	up	0.5	F3.mp4	R8.mp4	0	right	left	0	2.3676	5	F3.mp4	R8.mp4	1	0	up	1	0.8339	19	1
26	m	25	english	0	ylo	ylo_fal.mp3	0	down	-0.5	R5.mp4	F11.mp4	1	right	left	0	0.5175	10	R5.mp4	F11.mp4	1	1	down	1	1.192	20	0
26	m	25	english	0	ylo	ylo_ris.mp3	1	up	0.5	F11.mp4	R9.mp4	0	right	right	1	0.0018	20	R9.mp4	F11.mp4	0	1	down	0	2.6079	3	0
27	f	21	portuguese	0	ivam	ivam_fal.mp3	0	down	-0.5	R3.mp4	F9.mp4	1	right	right	1	0.5843	22	F9.mp4	R3.mp4	0	0	down	1	1.0908	21	0
27	f	21	portuguese	0	ivam	ivam_ris.mp3	1	up	0.5	R1.mp4	F12.mp4	1	left	right	0	1.0666	17	F12.mp4	R1.mp4	0	0	up	1	0.7981	6	1
27	f	21	portuguese	0	limer	limer_fal.mp3	0	down	-0.5	F4.mp4	R1.mp4	0	left	left	1	0.461	9	F4.mp4	R1.mp4	1	0	up	0	1.7744	12	1
27	f	21	portuguese	0	limer	limer_ris.mp3	1	up	0.5	F1.mp4	R7.mp4	0	right	left	0	0.9176	20	F1.mp4	R7.mp4	1	0	down	0	0.8058	4	0
27	f	21	portuguese	0	maro	maro_fal.mp3	0	down	-0.5	F12.mp4	R7.mp4	0	left	right	0	1.7427	2	R7.mp4	F12.mp4	0	1	up	0	1.0992	22	1
27	f	21	portuguese	0	maro	maro_ris.mp3	1	up	0.5	F11.mp4	R2.mp4	0	right	left	0	1.6641	6	F11.mp4	R2.mp4	1	0	up	1	1.1328	18	1
27	f	21	portuguese	0	reman	reman_fal.mp3	0	down	-0.5	F11.mp4	R5.mp4	0	left	right	0	2.7705	5	R5.mp4	F11.mp4	0	1	down	1	1.0243	7	0
27	f	21	portuguese	0	reman	reman_ris.mp3	1	up	0.5	R3.mp4	F3.mp4	1	left	right	0	2.7061	16	F3.mp4	R3.mp4	0	0	up	1	1.0984	10	1
27	f	21	portuguese	0	shinen	shinen_fal.mp3	0	down	-0.5	R12.mp4	F6.mp4	1	right	right	1	0.3972	8	F6.mp4	R12.mp4	0	0	up	0	0.4999	14	1
27	f	21	portuguese	0	shinen	shinen_ris.mp3	1	up	0.5	F2.mp4	R9.mp4	0	right	left	0	1.4526	10	F2.mp4	R9.mp4	1	0	up	1	1.3978	2	1
27	f	21	portuguese	0	teya	teya_fal.mp3	0	down	-0.5	F8.mp4	R10.mp4	0	left	left	1	1.3104	3	F8.mp4	R10.mp4	1	0	up	0	5.1774	0	1
27	f	21	portuguese	0	teya	teya_ris.mp3	1	up	0.5	R6.mp4	F6.mp4	1	left	left	1	0.5791	18	R6.mp4	F6.mp4	1	1	up	1	0.8931	8	1
27	f	21	portuguese	0	tila	tila_fal.mp3	0	down	-0.5	R8.mp4	F7.mp4	1	right	left	0	0.558	15	R8.mp4	F7.mp4	1	1	down	1	1.2247	20	0
27	f	21	portuguese	0	tila	tila_ris.mp3	1	up	0.5	R11.mp4	F5.mp4	1	left	left	1	0.487	4	R11.mp4	F5.mp4	1	1	up	1	1.2647	3	1
27	f	21	portuguese	0	vewa	vewa_fal.mp3	0	down	-0.5	R9.mp4	F10.mp4	1	right	left	0	0.3427	7	R9.mp4	F10.mp4	1	1	up	0	0.7568	23	1
27	f	21	portuguese	0	vewa	vewa_ris.mp3	1	up	0.5	F7.mp4	R5.mp4	0	right	left	0	0.6176	14	F7.mp4	R5.mp4	1	0	up	1	0.8669	17	1
27	f	21	portuguese	0	wemi	wemi_fal.mp3	0	down	-0.5	R6.mp4	F5.mp4	1	right	right	1	4.5531	0	F5.mp4	R6.mp4	0	0	down	1	0.6426	15	0
27	f	21	portuguese	0	wemi	wemi_ris.mp3	1	up	0.5	F10.mp4	R10.mp4	0	right	left	0	3.0073	1	F10.mp4	R10.mp4	1	0	down	0	1.1848	19	0
27	f	21	portuguese	0	yilel	yilel_fal.mp3	0	down	-0.5	R11.mp4	F3.mp4	1	right	right	1	2.7449	23	F3.mp4	R11.mp4	0	0	down	1	1.9636	11	0
27	f	21	portuguese	0	yilel	yilel_ris.mp3	1	up	0.5	F9.mp4	R4.mp4	0	right	right	1	0.409	11	R4.mp4	F9.mp4	0	1	down	0	1.3115	1	0
27	f	21	portuguese	0	yina	yina_fal.mp3	0	down	-0.5	F2.mp4	R4.mp4	0	left	left	1	1.0239	19	F2.mp4	R4.mp4	1	0	down	1	1.0322	5	0
27	f	21	portuguese	0	yina	yina_ris.mp3	1	up	0.5	F8.mp4	R12.mp4	0	right	left	0	0.4885	12	F8.mp4	R12.mp4	1	0	down	0	0.8847	9	0
27	f	21	portuguese	0	ylo	ylo_fal.mp3	0	down	-0.5	R2.mp4	F1.mp4	1	right	left	0	0.4741	21	R2.mp4	F1.mp4	1	1	down	1	0.8005	13	0
27	f	21	portuguese	0	ylo	ylo_ris.mp3	1	up	0.5	F4.mp4	R8.mp4	0	right	right	1	0.162	13	R8.mp4	F4.mp4	0	1	up	1	0.8507	16	1
28	f	37	english	0	ivam	ivam_fal.mp3	0	down	-0.5	F4.mp4	R6.mp4	0	left	right	0	4.9454	20	R6.mp4	F4.mp4	0	1	down	1	1.2751	21	0
28	f	37	english	0	ivam	ivam_ris.mp3	1	up	0.5	R4.mp4	F10.mp4	1	left	right	0	1.5004	4	F10.mp4	R4.mp4	0	0	up	1	2.9216	18	1
28	f	37	english	0	limer	limer_fal.mp3	0	down	-0.5	R3.mp4	F3.mp4	1	right	left	0	0.4845	17	R3.mp4	F3.mp4	1	1	up	0	1.3429	1	1
28	f	37	english	0	limer	limer_ris.mp3	1	up	0.5	R8.mp4	F9.mp4	1	left	right	0	1.0657	9	F9.mp4	R8.mp4	0	0	up	1	1.1078	19	1
28	f	37	english	0	maro	maro_fal.mp3	0	down	-0.5	F10.mp4	R1.mp4	0	left	right	0	0.6193	8	R1.mp4	F10.mp4	0	1	down	1	1.4558	8	0
28	f	37	english	0	maro	maro_ris.mp3	1	up	0.5	R1.mp4	F6.mp4	1	left	right	0	4.927	13	F6.mp4	R1.mp4	0	0	down	0	1.7053	3	0
28	f	37	english	0	reman	reman_fal.mp3	0	down	-0.5	F1.mp4	R2.mp4	0	left	left	1	3.2209	14	F1.mp4	R2.mp4	1	0	down	1	2.458	0	0
28	f	37	english	0	reman	reman_ris.mp3	1	up	0.5	R5.mp4	F2.mp4	1	left	right	0	5.8153	22	F2.mp4	R5.mp4	0	0	down	0	0.9754	2	0
28	f	37	english	0	shinen	shinen_fal.mp3	0	down	-0.5	R9.mp4	F12.mp4	1	right	left	0	0.4502	21	R9.mp4	F12.mp4	1	1	down	1	1.4549	9	0
28	f	37	english	0	shinen	shinen_ris.mp3	1	up	0.5	F12.mp4	R7.mp4	0	right	left	0	0.3939	7	F12.mp4	R7.mp4	1	0	up	1	1.3087	13	1
28	f	37	english	0	teya	teya_fal.mp3	0	down	-0.5	F8.mp4	R5.mp4	0	left	right	0	1.1708	3	R5.mp4	F8.mp4	0	1	down	1	1.4496	23	0
28	f	37	english	0	teya	teya_ris.mp3	1	up	0.5	F5.mp4	R9.mp4	0	right	left	0	2.571	18	F5.mp4	R9.mp4	1	0	up	1	1.022	12	1
28	f	37	english	0	tila	tila_fal.mp3	0	down	-0.5	F11.mp4	R4.mp4	0	left	right	0	4.5485	11	R4.mp4	F11.mp4	0	1	down	1	1.1721	5	0
28	f	37	english	0	tila	tila_ris.mp3	1	up	0.5	F8.mp4	R2.mp4	0	right	right	1	0.1725	5	R2.mp4	F8.mp4	0	1	up	1	0.974	14	1
28	f	37	english	0	vewa	vewa_fal.mp3	0	down	-0.5	F2.mp4	R7.mp4	0	left	left	1	0.4614	19	F2.mp4	R7.mp4	1	0	down	1	1.3277	22	0
28	f	37	english	0	vewa	vewa_ris.mp3	1	up	0.5	R10.mp4	F7.mp4	1	left	right	0	5.3541	0	F7.mp4	R10.mp4	0	0	up	1	1.1093	15	1
28	f	37	english	0	wemi	wemi_fal.mp3	0	down	-0.5	R10.mp4	F5.mp4	1	right	right	1	0.9011	1	F5.mp4	R10.mp4	0	0	down	1	1.2074	17	0
28	f	37	english	0	wemi	wemi_ris.mp3	1	up	0.5	R12.mp4	F4.mp4	1	left	right	0	0.922	2	F4.mp4	R12.mp4	0	0	up	1	0.9902	16	1
28	f	37	english	0	yilel	yilel_fal.mp3	0	down	-0.5	F9.mp4	R11.mp4	0	left	left	1	0.2856	16	F9.mp4	R11.mp4	1	0	down	1	1.2228	11	0
28	f	37	english	0	yilel	yilel_ris.mp3	1	up	0.5	F3.mp4	R11.mp4	0	right	left	0	5.3131	23	F3.mp4	R11.mp4	1	0	up	1	0.9274	10	1
28	f	37	english	0	yina	yina_fal.mp3	0	down	-0.5	R12.mp4	F7.mp4	1	right	left	0	0.0513	6	R12.mp4	F7.mp4	1	1	up	0	1.5466	7	1
28	f	37	english	0	yina	yina_ris.mp3	1	up	0.5	F11.mp4	R6.mp4	0	right	left	0	1.605	10	F11.mp4	R6.mp4	1	0	up	1	1.1721	4	1
28	f	37	english	0	ylo	ylo_fal.mp3	0	down	-0.5	R8.mp4	F6.mp4	1	right	right	1	0.0446	15	F6.mp4	R8.mp4	0	0	down	1	2.0085	6	0
28	f	37	english	0	ylo	ylo_ris.mp3	1	up	0.5	F1.mp4	R3.mp4	0	right	right	1	5.7656	12	R3.mp4	F1.mp4	0	1	up	1	1.2897	20	1
29	f	49	pashtu	0	ivam	ivam_fal.mp3	0	down	-0.5	F11.mp4	R5.mp4	0	left	right	0	4.0382	2	R5.mp4	F11.mp4	0	1	down	1	0.58	3	0
29	f	49	pashtu	0	ivam	ivam_ris.mp3	1	up	0.5	R1.mp4	F3.mp4	1	left	left	1	0.5668	18	R1.mp4	F3.mp4	1	1	down	0	0.34	22	0
29	f	49	pashtu	0	limer	limer_fal.mp3	0	down	-0.5	R1.mp4	F3.mp4	1	right	left	0	1.2825	13	R1.mp4	F3.mp4	1	1	up	0	0.4593	15	1
29	f	49	pashtu	0	limer	limer_ris.mp3	1	up	0.5	F8.mp4	R10.mp4	0	right	left	0	1.8369	19	F8.mp4	R10.mp4	1	0	up	1	0.4877	17	1
29	f	49	pashtu	0	maro	maro_fal.mp3	0	down	-0.5	R2.mp4	F12.mp4	1	right	right	1	0.9674	1	F12.mp4	R2.mp4	0	0	down	1	0.5361	5	0
29	f	49	pashtu	0	maro	maro_ris.mp3	1	up	0.5	F1.mp4	R9.mp4	0	right	left	0	0.1356	5	F1.mp4	R9.mp4	1	0	down	0	0.3886	21	0
29	f	49	pashtu	0	reman	reman_fal.mp3	0	down	-0.5	R11.mp4	F1.mp4	1	right	right	1	3.7133	11	F1.mp4	R11.mp4	0	0	down	1	0.8643	4	0
29	f	49	pashtu	0	reman	reman_ris.mp3	1	up	0.5	F6.mp4	R7.mp4	0	right	right	1	3.6937	22	R7.mp4	F6.mp4	0	1	down	0	0.3653	8	0
29	f	49	pashtu	0	shinen	shinen_fal.mp3	0	down	-0.5	F5.mp4	R3.mp4	0	left	right	0	5.4481	4	R3.mp4	F5.mp4	0	1	down	1	0.7772	1	0
29	f	49	pashtu	0	shinen	shinen_ris.mp3	1	up	0.5	R3.mp4	F9.mp4	1	left	left	1	4.3646	7	R3.mp4	F9.mp4	1	1	down	0	0.4826	14	0
29	f	49	pashtu	0	teya	teya_fal.mp3	0	down	-0.5	F10.mp4	R7.mp4	0	left	right	0	0.0473	15	R7.mp4	F10.mp4	0	1	down	1	2.1245	0	0
29	f	49	pashtu	0	teya	teya_ris.mp3	1	up	0.5	F10.mp4	R6.mp4	0	right	left	0	0.4155	6	F10.mp4	R6.mp4	1	0	up	1	0.9214	6	1
29	f	49	pashtu	0	tila	tila_fal.mp3	0	down	-0.5	F6.mp4	R9.mp4	0	left	right	0	6.5813	0	R9.mp4	F6.mp4	0	1	up	0	0.5711	19	1
29	f	49	pashtu	0	tila	tila_ris.mp3	1	up	0.5	R8.mp4	F7.mp4	1	left	right	0	1.0227	16	F7.mp4	R8.mp4	0	0	up	1	0.4699	16	1
29	f	49	pashtu	0	vewa	vewa_fal.mp3	0	down	-0.5	F4.mp4	R4.mp4	0	left	left	1	0.166	12	F4.mp4	R4.mp4	1	0	down	1	0.7953	11	0
29	f	49	pashtu	0	vewa	vewa_ris.mp3	1	up	0.5	R4.mp4	F11.mp4	1	left	right	0	1.2163	20	F11.mp4	R4.mp4	0	0	down	0	0.3827	20	0
29	f	49	pashtu	0	wemi	wemi_fal.mp3	0	down	-0.5	F2.mp4	R10.mp4	0	left	right	0	0.6	14	R10.mp4	F2.mp4	0	1	down	1	0.4913	13	0
29	f	49	pashtu	0	wemi	wemi_ris.mp3	1	up	0.5	F4.mp4	R11.mp4	0	right	left	0	3.8661	23	F4.mp4	R11.mp4	1	0	down	0	0.3895	10	0
29	f	49	pashtu	0	yilel	yilel_fal.mp3	0	down	-0.5	R12.mp4	F9.mp4	1	right	right	1	2.5324	9	F9.mp4	R12.mp4	0	0	down	1	0.4408	9	0
29	f	49	pashtu	0	yilel	yilel_ris.mp3	1	up	0.5	R2.mp4	F2.mp4	1	left	right	0	0.2245	10	F2.mp4	R2.mp4	0	0	down	0	0.8868	2	0
29	f	49	pashtu	0	yina	yina_fal.mp3	0	down	-0.5	R6.mp4	F7.mp4	1	right	left	0	1.9601	17	R6.mp4	F7.mp4	1	1	up	0	0.4213	18	1
29	f	49	pashtu	0	yina	yina_ris.mp3	1	up	0.5	F5.mp4	R5.mp4	0	right	right	1	0.5266	21	R5.mp4	F5.mp4	0	1	down	0	0.384	23	0
29	f	49	pashtu	0	ylo	ylo_fal.mp3	0	down	-0.5	R8.mp4	F8.mp4	1	right	left	0	1.4903	3	R8.mp4	F8.mp4	1	1	down	1	0.4113	12	0
29	f	49	pashtu	0	ylo	ylo_ris.mp3	1	up	0.5	R12.mp4	F12.mp4	1	left	left	1	2.8701	8	R12.mp4	F12.mp4	1	1	down	0	0.4188	7	0
30	m	24	portuguese	0	ivam	ivam_fal.mp3	0	down	-0.5	F7.mp4	R1.mp4	0	left	right	0	1.279	7	R1.mp4	F7.mp4	0	1	down	1	3.364	12	0
30	m	24	portuguese	0	ivam	ivam_ris.mp3	1	up	0.5	R7.mp4	F2.mp4	1	left	left	1	3.433	23	R7.mp4	F2.mp4	1	1	up	1	1.785	2	1
30	m	24	portuguese	0	limer	limer_fal.mp3	0	down	-0.5	F1.mp4	R3.mp4	0	left	right	0	0.551	14	R3.mp4	F1.mp4	0	1	down	1	1.532	21	0
30	m	24	portuguese	0	limer	limer_ris.mp3	1	up	0.5	R6.mp4	F4.mp4	1	left	left	1	1.671	2	R6.mp4	F4.mp4	1	1	up	1	3.232	0	1
30	m	24	portuguese	0	maro	maro_fal.mp3	0	down	-0.5	R12.mp4	F5.mp4	1	right	right	1	1.49	8	F5.mp4	R12.mp4	0	0	down	1	3.107	14	0
30	m	24	portuguese	0	maro	maro_ris.mp3	1	up	0.5	R11.mp4	F6.mp4	1	left	left	1	3.341	22	R11.mp4	F6.mp4	1	1	down	0	1.892	11	0
30	m	24	portuguese	0	reman	reman_fal.mp3	0	down	-0.5	F12.mp4	R7.mp4	0	left	left	1	0.658	4	F12.mp4	R7.mp4	1	0	up	0	1.733	5	1
30	m	24	portuguese	0	reman	reman_ris.mp3	1	up	0.5	R8.mp4	F5.mp4	1	left	left	1	0.977	1	R8.mp4	F5.mp4	1	1	up	1	1.242	6	1
30	m	24	portuguese	0	shinen	shinen_fal.mp3	0	down	-0.5	R9.mp4	F3.mp4	1	right	right	1	8.15	3	F3.mp4	R9.mp4	0	0	down	1	1.536	4	0
30	m	24	portuguese	0	shinen	shinen_ris.mp3	1	up	0.5	F7.mp4	R4.mp4	0	right	right	1	0.392	5	R4.mp4	F7.mp4	0	1	down	0	2.039	3	0
30	m	24	portuguese	0	teya	teya_fal.mp3	0	down	-0.5	F8.mp4	R2.mp4	0	left	right	0	1.038	20	R2.mp4	F8.mp4	0	1	up	0	5.897	13	1
30	m	24	portuguese	0	teya	teya_ris.mp3	1	up	0.5	F9.mp4	R9.mp4	0	right	left	0	0.748	18	F9.mp4	R9.mp4	1	0	down	0	8.78	15	0
30	m	24	portuguese	0	tila	tila_fal.mp3	0	down	-0.5	R11.mp4	F10.mp4	1	right	right	1	8.302	21	F10.mp4	R11.mp4	0	0	down	1	2.115	1	0
30	m	24	portuguese	0	tila	tila_ris.mp3	1	up	0.5	F10.mp4	R2.mp4	0	right	left	0	2.992	16	F10.mp4	R2.mp4	1	0	up	1	1.11	22	1
30	m	24	portuguese	0	vewa	vewa_fal.mp3	0	down	-0.5	F4.mp4	R4.mp4	0	left	left	1	6.986	11	F4.mp4	R4.mp4	1	0	up	0	1.607	19	1
30	m	24	portuguese	0	vewa	vewa_ris.mp3	1	up	0.5	F1.mp4	R10.mp4	0	right	right	1	1.984	6	R10.mp4	F1.mp4	0	1	up	1	0.917	20	1
30	m	24	portuguese	0	wemi	wemi_fal.mp3	0	down	-0.5	F11.mp4	R10.mp4	0	left	left	1	4.167	12	F11.mp4	R10.mp4	1	0	down	1	1.956	7	0
30	m	24	portuguese	0	wemi	wemi_ris.mp3	1	up	0.5	F8.mp4	R3.mp4	0	right	right	1	0.69	13	R3.mp4	F8.mp4	0	1	up	1	1.758	9	1
30	m	24	portuguese	0	yilel	yilel_fal.mp3	0	down	-0.5	R5.mp4	F6.mp4	1	right	right	1	6.506	17	F6.mp4	R5.mp4	0	0	down	1	1.262	17	0
30	m	24	portuguese	0	yilel	yilel_ris.mp3	1	up	0.5	R12.mp4	F12.mp4	1	left	right	0	0.181	0	F12.mp4	R12.mp4	0	0	up	1	4.426	8	1
30	m	24	portuguese	0	yina	yina_fal.mp3	0	down	-0.5	R6.mp4	F9.mp4	1	right	left	0	0.328	10	R6.mp4	F9.mp4	1	1	up	0	1.522	18	1
30	m	24	portuguese	0	yina	yina_ris.mp3	1	up	0.5	F11.mp4	R1.mp4	0	right	right	1	4.402	19	R1.mp4	F11.mp4	0	1	up	1	3.858	16	1
30	m	24	portuguese	0	ylo	ylo_fal.mp3	0	down	-0.5	R8.mp4	F2.mp4	1	right	right	1	0.22	15	F2.mp4	R8.mp4	0	0	down	1	1.141	10	0
30	m	24	portuguese	0	ylo	ylo_ris.mp3	1	up	0.5	F3.mp4	R5.mp4	0	right	right	1	6.916	9	R5.mp4	F3.mp4	0	1	down	0	1.486	23	0
31	m	30	portuguese	0	ivam	ivam_fal.mp3	0	down	-0.5	F5.mp4	R6.mp4	0	left	right	0	2.5653	2	R6.mp4	F5.mp4	0	1	down	1	1.2385	6	0
31	m	30	portuguese	0	ivam	ivam_ris.mp3	1	up	0.5	R1.mp4	F1.mp4	1	left	right	0	0.9098	10	F1.mp4	R1.mp4	0	0	up	1	1.3075	13	1
31	m	30	portuguese	0	limer	limer_fal.mp3	0	down	-0.5	R12.mp4	F6.mp4	1	right	right	1	2.6316	1	F6.mp4	R12.mp4	0	0	down	1	1.38	18	0
31	m	30	portuguese	0	limer	limer_ris.mp3	1	up	0.5	F10.mp4	R6.mp4	0	right	right	1	2.6467	18	R6.mp4	F10.mp4	0	1	down	0	4.2882	12	0
31	m	30	portuguese	0	maro	maro_fal.mp3	0	down	-0.5	F10.mp4	R11.mp4	0	left	right	0	0.8281	19	R11.mp4	F10.mp4	0	1	down	1	1.2134	17	0
31	m	30	portuguese	0	maro	maro_ris.mp3	1	up	0.5	R7.mp4	F5.mp4	1	left	left	1	2.2887	11	R7.mp4	F5.mp4	1	1	up	1	1.5799	7	1
31	m	30	portuguese	0	reman	reman_fal.mp3	0	down	-0.5	R8.mp4	F9.mp4	1	right	left	0	3.9597	16	R8.mp4	F9.mp4	1	1	down	1	1.1147	16	0
31	m	30	portuguese	0	reman	reman_ris.mp3	1	up	0.5	F6.mp4	R9.mp4	0	right	left	0	1.1056	21	F6.mp4	R9.mp4	1	0	down	0	1.5345	21	0
31	m	30	portuguese	0	shinen	shinen_fal.mp3	0	down	-0.5	F8.mp4	R5.mp4	0	left	right	0	0.9253	15	R5.mp4	F8.mp4	0	1	down	1	1.745	3	0
31	m	30	portuguese	0	shinen	shinen_ris.mp3	1	up	0.5	F3.mp4	R5.mp4	0	right	left	0	1.8239	5	F3.mp4	R5.mp4	1	0	up	1	1.2283	19	1
31	m	30	portuguese	0	teya	teya_fal.mp3	0	down	-0.5	F11.mp4	R1.mp4	0	left	left	1	2.6056	14	F11.mp4	R1.mp4	1	0	down	1	1.8709	15	0
31	m	30	portuguese	0	teya	teya_ris.mp3	1	up	0.5	R10.mp4	F2.mp4	1	left	right	0	1.2463	6	F2.mp4	R10.mp4	0	0	up	1	5.2975	22	1
31	m	30	portuguese	0	tila	tila_fal.mp3	0	down	-0.5	R7.mp4	F2.mp4	1	right	right	1	0.9783	20	F2.mp4	R7.mp4	0	0	down	1	1.2686	23	0
31	m	30	portuguese	0	tila	tila_ris.mp3	1	up	0.5	R2.mp4	F12.mp4	1	left	left	1	0.7562	9	R2.mp4	F12.mp4	1	1	up	1	1.1424	9	1
31	m	30	portuguese	0	vewa	vewa_fal.mp3	0	down	-0.5	F7.mp4	R3.mp4	0	left	left	1	5.1176	4	F7.mp4	R3.mp4	1	0	up	0	2.0432	11	1
31	m	30	portuguese	0	vewa	vewa_ris.mp3	1	up	0.5	R11.mp4	F8.mp4	1	left	right	0	1.2328	0	F8.mp4	R11.mp4	0	0	up	1	1.4493	5	1
31	m	30	portuguese	0	wemi	wemi_fal.mp3	0	down	-0.5	F3.mp4	R4.mp4	0	left	right	0	2.672	8	R4.mp4	F3.mp4	0	1	down	1	1.6932	2	0
31	m	30	portuguese	0	wemi	wemi_ris.mp3	1	up	0.5	F11.mp4	R8.mp4	0	right	right	1	2.9657	3	R8.mp4	F11.mp4	0	1	up	1	1.642	20	1
31	m	30	portuguese	0	yilel	yilel_fal.mp3	0	down	-0.5	F12.mp4	R10.mp4	0	left	right	0	3.4486	13	R10.mp4	F12.mp4	0	1	down	1	3.7585	14	0
31	m	30	portuguese	0	yilel	yilel_ris.mp3	1	up	0.5	R3.mp4	F4.mp4	1	left	left	1	1.2334	17	R3.mp4	F4.mp4	1	1	up	1	3.871	0	1
31	m	30	portuguese	0	yina	yina_fal.mp3	0	down	-0.5	F1.mp4	R2.mp4	0	left	left	1	0.6043	22	F1.mp4	R2.mp4	1	0	down	1	1.1077	8	0
31	m	30	portuguese	0	yina	yina_ris.mp3	1	up	0.5	F7.mp4	R4.mp4	0	right	right	1	4.8697	12	R4.mp4	F7.mp4	0	1	up	1	2.1066	1	1
31	m	30	portuguese	0	ylo	ylo_fal.mp3	0	down	-0.5	F4.mp4	R9.mp4	0	left	left	1	0.2342	23	F4.mp4	R9.mp4	1	0	down	1	1.2958	10	0
31	m	30	portuguese	0	ylo	ylo_ris.mp3	1	up	0.5	R12.mp4	F9.mp4	1	left	left	1	3.3088	7	R12.mp4	F9.mp4	1	1	up	1	1.194	4	1
32	m	22	portuguese	0	ivam	ivam_fal.mp3	0	down	-0.5	F11.mp4	R6.mp4	0	left	left	1	0.7651	23	F11.mp4	R6.mp4	1	0	up	0	1.1358	20	1
32	m	22	portuguese	0	ivam	ivam_ris.mp3	1	up	0.5	F10.mp4	R2.mp4	0	right	left	0	0.4193	4	F10.mp4	R2.mp4	1	0	up	1	1.426	5	1
32	m	22	portuguese	0	limer	limer_fal.mp3	0	down	-0.5	F6.mp4	R12.mp4	0	left	left	1	1.3086	16	F6.mp4	R12.mp4	1	0	up	0	0.8414	9	1
32	m	22	portuguese	0	limer	limer_ris.mp3	1	up	0.5	R7.mp4	F8.mp4	1	left	left	1	0.7726	18	R7.mp4	F8.mp4	1	1	down	0	1.8951	23	0
32	m	22	portuguese	0	maro	maro_fal.mp3	0	down	-0.5	R7.mp4	F5.mp4	1	right	right	1	0.2777	9	F5.mp4	R7.mp4	0	0	down	1	1.2901	6	0
32	m	22	portuguese	0	maro	maro_ris.mp3	1	up	0.5	F4.mp4	R4.mp4	0	right	left	0	4.04	3	F4.mp4	R4.mp4	1	0	down	0	1.0982	13	0
32	m	22	portuguese	0	reman	reman_fal.mp3	0	down	-0.5	F9.mp4	R10.mp4	0	left	left	1	0.2908	8	F9.mp4	R10.mp4	1	0	down	1	1.4758	4	0
32	m	22	portuguese	0	reman	reman_ris.mp3	1	up	0.5	F7.mp4	R5.mp4	0	right	left	0	0.4675	15	F7.mp4	R5.mp4	1	0	up	1	0.7354	14	1
32	m	22	portuguese	0	shinen	shinen_fal.mp3	0	down	-0.5	R9.mp4	F2.mp4	1	right	right	1	1.3315	14	F2.mp4	R9.mp4	0	0	down	1	1.3565	19	0
32	m	22	portuguese	0	shinen	shinen_ris.mp3	1	up	0.5	F5.mp4	R9.mp4	0	right	right	1	0.3513	10	R9.mp4	F5.mp4	0	1	up	1	1.2004	7	1
32	m	22	portuguese	0	teya	teya_fal.mp3	0	down	-0.5	R1.mp4	F10.mp4	1	right	left	0	0.8653	7	R1.mp4	F10.mp4	1	1	up	0	1.3777	18	1
32	m	22	portuguese	0	teya	teya_ris.mp3	1	up	0.5	F12.mp4	R11.mp4	0	right	left	0	0.1218	6	F12.mp4	R11.mp4	1	0	up	1	1.2494	10	1
32	m	22	portuguese	0	tila	tila_fal.mp3	0	down	-0.5	F3.mp4	R3.mp4	0	left	left	1	1.0223	19	F3.mp4	R3.mp4	1	0	down	1	1.8331	2	0
32	m	22	portuguese	0	tila	tila_ris.mp3	1	up	0.5	F11.mp4	R3.mp4	0	right	right	1	1.0002	20	R3.mp4	F11.mp4	0	1	down	0	1.1241	16	0
32	m	22	portuguese	0	vewa	vewa_fal.mp3	0	down	-0.5	F1.mp4	R4.mp4	0	left	right	0	0.3518	13	R4.mp4	F1.mp4	0	1	down	1	1.6684	8	0
32	m	22	portuguese	0	vewa	vewa_ris.mp3	1	up	0.5	F9.mp4	R6.mp4	0	right	right	1	0.1568	2	R6.mp4	F9.mp4	0	1	down	0	3.6591	21	0
32	m	22	portuguese	0	wemi	wemi_fal.mp3	0	down	-0.5	R2.mp4	F7.mp4	1	right	right	1	0.3678	5	F7.mp4	R2.mp4	0	0	up	0	1.863	3	1
32	m	22	portuguese	0	wemi	wemi_ris.mp3	1	up	0.5	F6.mp4	R8.mp4	0	right	right	1	0.3932	22	R8.mp4	F6.mp4	0	1	down	0	1.5772	12	0
32	m	22	portuguese	0	yilel	yilel_fal.mp3	0	down	-0.5	F4.mp4	R8.mp4	0	left	right	0	0.385	0	R8.mp4	F4.mp4	0	1	down	1	1.1018	11	0
32	m	22	portuguese	0	yilel	yilel_ris.mp3	1	up	0.5	F2.mp4	R10.mp4	0	right	right	1	0.2816	21	R10.mp4	F2.mp4	0	1	up	1	1.1091	15	1
32	m	22	portuguese	0	yina	yina_fal.mp3	0	down	-0.5	F12.mp4	R5.mp4	0	left	left	1	0.3561	11	F12.mp4	R5.mp4	1	0	down	1	3.3074	22	0
32	m	22	portuguese	0	yina	yina_ris.mp3	1	up	0.5	R12.mp4	F3.mp4	1	left	left	1	0.3389	17	R12.mp4	F3.mp4	1	1	up	1	0.917	17	1
32	m	22	portuguese	0	ylo	ylo_fal.mp3	0	down	-0.5	F8.mp4	R11.mp4	0	left	left	1	5.6062	1	F8.mp4	R11.mp4	1	0	up	0	3.017	1	1
32	m	22	portuguese	0	ylo	ylo_ris.mp3	1	up	0.5	R1.mp4	F1.mp4	1	left	left	1	0.4344	12	R1.mp4	F1.mp4	1	1	up	1	5.8319	0	1
33	m	22	italian	0	ivam	ivam_fal.mp3	0	down	-0.5	F9.mp4	R12.mp4	0	left	right	0	0.7274	19	R12.mp4	F9.mp4	0	1	up	0	4.4945	7	1
33	m	22	italian	0	ivam	ivam_ris.mp3	1	up	0.5	F7.mp4	R4.mp4	0	right	left	0	0.7871	12	F7.mp4	R4.mp4	1	0	up	1	2.6224	20	1
33	m	22	italian	0	limer	limer_fal.mp3	0	down	-0.5	R7.mp4	F12.mp4	1	right	right	1	0.2417	1	F12.mp4	R7.mp4	0	0	down	1	2.7403	4	0
33	m	22	italian	0	limer	limer_ris.mp3	1	up	0.5	F9.mp4	R5.mp4	0	right	right	1	0.7908	9	R5.mp4	F9.mp4	0	1	up	1	2.2055	17	1
33	m	22	italian	0	maro	maro_fal.mp3	0	down	-0.5	F6.mp4	R5.mp4	0	left	left	1	1.2702	4	F6.mp4	R5.mp4	1	0	down	1	2.1213	15	0
33	m	22	italian	0	maro	maro_ris.mp3	1	up	0.5	F2.mp4	R2.mp4	0	right	right	1	1.6907	0	R2.mp4	F2.mp4	0	1	down	0	2.7502	1	0
33	m	22	italian	0	reman	reman_fal.mp3	0	down	-0.5	F2.mp4	R9.mp4	0	left	right	0	0.4198	21	R9.mp4	F2.mp4	0	1	down	1	2.2555	8	0
33	m	22	italian	0	reman	reman_ris.mp3	1	up	0.5	R1.mp4	F11.mp4	1	left	left	1	0.8081	10	R1.mp4	F11.mp4	1	1	up	1	1.102	23	1
33	m	22	italian	0	shinen	shinen_fal.mp3	0	down	-0.5	F5.mp4	R6.mp4	0	left	left	1	1.7965	16	F5.mp4	R6.mp4	1	0	down	1	2.0889	9	0
33	m	22	italian	0	shinen	shinen_ris.mp3	1	up	0.5	R6.mp4	F10.mp4	1	left	left	1	1.6119	23	R6.mp4	F10.mp4	1	1	up	1	3.2251	16	1
33	m	22	italian	0	teya	teya_fal.mp3	0	down	-0.5	R2.mp4	F1.mp4	1	right	right	1	0.9446	11	F1.mp4	R2.mp4	0	0	up	0	3.3781	0	1
33	m	22	italian	0	teya	teya_ris.mp3	1	up	0.5	R10.mp4	F1.mp4	1	left	right	0	0.4189	20	F1.mp4	R10.mp4	0	0	up	1	1.701	22	1
33	m	22	italian	0	tila	tila_fal.mp3	0	down	-0.5	F3.mp4	R1.mp4	0	left	left	1	0.6605	18	F3.mp4	R1.mp4	1	0	down	1	1.3127	14	0
33	m	22	italian	0	tila	tila_ris.mp3	1	up	0.5	R9.mp4	F12.mp4	1	left	left	1	1.7243	15	R9.mp4	F12.mp4	1	1	up	1	2.1259	12	1
33	m	22	italian	0	vewa	vewa_fal.mp3	0	down	-0.5	R10.mp4	F4.mp4	1	right	right	1	2.2441	2	F4.mp4	R10.mp4	0	0	down	1	2.0515	13	0
33	m	22	italian	0	vewa	vewa_ris.mp3	1	up	0.5	F5.mp4	R12.mp4	0	right	left	0	1.5104	8	F5.mp4	R12.mp4	1	0	up	1	2.5402	18	1
33	m	22	italian	0	wemi	wemi_fal.mp3	0	down	-0.5	F8.mp4	R4.mp4	0	left	left	1	0.3914	14	F8.mp4	R4.mp4	1	0	down	1	2.7985	10	0
33	m	22	italian	0	wemi	wemi_ris.mp3	1	up	0.5	R8.mp4	F6.mp4	1	left	left	1	2.3637	5	R8.mp4	F6.mp4	1	1	up	1	1.2492	5	1
33	m	22	italian	0	yilel	yilel_fal.mp3	0	down	-0.5	R3.mp4	F10.mp4	1	right	right	1	1.1236	13	F10.mp4	R3.mp4	0	0	down	1	1.2522	19	0
33	m	22	italian	0	yilel	yilel_ris.mp3	1	up	0.5	R3.mp4	F3.mp4	1	left	right	0	0.5255	22	F3.mp4	R3.mp4	0	0	up	1	2.0395	2	1
33	m	22	italian	0	yina	yina_fal.mp3	0	down	-0.5	R8.mp4	F11.mp4	1	right	left	0	1.0634	3	R8.mp4	F11.mp4	1	1	down	1	2.5003	3	0
33	m	22	italian	0	yina	yina_ris.mp3	1	up	0.5	F8.mp4	R7.mp4	0	right	right	1	0.6286	17	R7.mp4	F8.mp4	0	1	up	1	1.0969	21	1
33	m	22	italian	0	ylo	ylo_fal.mp3	0	down	-0.5	F7.mp4	R11.mp4	0	left	right	0	3.0867	6	R11.mp4	F7.mp4	0	1	down	1	1.3156	6	0
33	m	22	italian	0	ylo	ylo_ris.mp3	1	up	0.5	R11.mp4	F4.mp4	1	left	left	1	0.4452	7	R11.mp4	F4.mp4	1	1	up	1	6.435	11	1
34	m	27	polish	0	ivam	ivam_fal.mp3	0	down	-0.5	F3.mp4	R7.mp4	0	left	right	0	2.8071	8	R7.mp4	F3.mp4	0	1	down	1	1.6291	3	0
34	m	27	polish	0	ivam	ivam_ris.mp3	1	up	0.5	R4.mp4	F11.mp4	1	left	right	0	1.7685	18	F11.mp4	R4.mp4	0	0	up	1	1.1008	10	1
34	m	27	polish	0	limer	limer_fal.mp3	0	down	-0.5	F2.mp4	R12.mp4	0	left	left	1	0.2446	3	F2.mp4	R12.mp4	1	0	up	0	2.8835	22	1
34	m	27	polish	0	limer	limer_ris.mp3	1	up	0.5	R6.mp4	F1.mp4	1	left	right	0	1.5264	0	F1.mp4	R6.mp4	0	0	down	0	1.961	7	0
34	m	27	polish	0	maro	maro_fal.mp3	0	down	-0.5	F9.mp4	R8.mp4	0	left	right	0	0.3325	7	R8.mp4	F9.mp4	0	1	up	0	1.429	23	1
34	m	27	polish	0	maro	maro_ris.mp3	1	up	0.5	F4.mp4	R8.mp4	0	right	right	1	1.8217	5	R8.mp4	F4.mp4	0	1	up	1	3.4106	17	1
34	m	27	polish	0	reman	reman_fal.mp3	0	down	-0.5	F7.mp4	R10.mp4	0	left	right	0	1.3739	15	R10.mp4	F7.mp4	0	1	down	1	4.7567	8	0
34	m	27	polish	0	reman	reman_ris.mp3	1	up	0.5	F9.mp4	R12.mp4	0	right	left	0	1.8272	13	F9.mp4	R12.mp4	1	0	up	1	1.0058	14	1
34	m	27	polish	0	shinen	shinen_fal.mp3	0	down	-0.5	R6.mp4	F1.mp4	1	right	left	0	1.1095	10	R6.mp4	F1.mp4	1	1	down	1	1.0948	11	0
34	m	27	polish	0	shinen	shinen_ris.mp3	1	up	0.5	F6.mp4	R10.mp4	0	right	left	0	0.9061	19	F6.mp4	R10.mp4	1	0	up	1	2.1938	0	1
34	m	27	polish	0	teya	teya_fal.mp3	0	down	-0.5	F6.mp4	R9.mp4	0	left	right	0	0.4076	23	R9.mp4	F6.mp4	0	1	down	1	4.2905	12	0
